randomise_blocks,randomise_trials,display,Web_Audio,Single_Word,ANSWER,Row,Sentence,Target_word,nw,WordPredictions,nprt,ClozeProbability,nwrds,Constraint_percent,entropy,sentence,word,condition,channel,trigger,trials.thisRepN,trials.thisTrialN,trials.thisN,trials.thisIndex,text.started,text.stopped,weiter_1.started,weiter_1.stopped,mouse_6.x,mouse_6.y,mouse_6.leftButton,mouse_6.midButton,mouse_6.rightButton,mouse_6.clicked_name,mouse_6.started,mouse_6.stopped,fixation_2.started,fixation_2.stopped,interval_2.started,interval_2.stopped,target_2.started,target_2.stopped,inter_stimulus_interval_2.started,inter_stimulus_interval_2.stopped,text_7.started,text_7.stopped,clarity_2.response,clarity_2.rt,clarity_2.started,clarity_2.stopped,weiter_3.started,weiter_3.stopped,weiter_3.numClicks,weiter_3.timesOn,weiter_3.timesOff,instruction_text_2.started,instruction_text_2.stopped,text_8.started,text_8.stopped,mouse_3.x,mouse_3.y,mouse_3.leftButton,mouse_3.midButton,mouse_3.rightButton,mouse_3.clicked_name,mouse_3.started,mouse_3.stopped,image_3.started,image_3.stopped,mic_2.clip,mic_2.started,mic_2.stopped,image_4.started,image_4.stopped,confidence_2.response,confidence_2.rt,confidence_2.started,confidence_2.stopped,text_9.started,text_9.stopped,weiter_5.started,weiter_5.stopped,weiter_5.numClicks,weiter_5.timesOn,weiter_5.timesOff,text_2.started,text_2.stopped,participant,randomized group,date,expName,psychopyVersion,frameRate,
,,,,,,,,,,,,,,,,,,,,,,,,,21.82915939996019,None,21.82915939996019,None,0.050925925,-0.29444444,1,0,0,weiter_1,0.007753840007353574,None,,,,,,,,,,,,,,,,,,,,,,,,,,,,,,,,,,,,,,,,,,,,,,,,,,,,S028,3B,2024_May_06_1652,experiment_SCZ_Long_corrected,2021.2.3,48.00452394948917,
0.5108968584402281,1.0,Task,em_115p.wav,em_115tw_1.wav,None,87.0,Petra verfaßte ein Kapitel im,Buch,6.0,25.0,43.0,0.581395349,14.0,0.325581395,1.69632426,Stimuli/em_115p.wav,Stimuli/em_115tw_1.wav,2.0,1.0,21.0,0,0,0,46,,,,,,,,,,,,,24.385619200009387,27.612130699970294,26.407789599965326,26.80695509997895,26.807243160007054,None,27.362597099971026,27.59984290000284,27.59984290000284,None,0.02222222089767456,4.939736200030893,27.59984290000284,None,29.348014499992132,None,1,[0.6482100999564864],[0.6482188999652863],29.99960069998633,None,29.99960069998633,None,-0.047222223,-0.29907408,1,0,0,text_8,0.010432860057335347,None,30.975732799968682,33.18114419997437,C:\Users\Franziska\Desktop\S1_language prediction\data/S028_experiment_SCZ_Long_corrected_2024_May_06_1652_mic_2_recorded\recording_mic_2_trials_0.wav,0.014320760034024715,2.2367654599947855,33.14008189999731,None,0.03518518805503845,2.8992786000017077,33.26582219998818,None,33.26582219998818,None,36.180607299960684,None,1,[0.6071542000281624],[0.6071605000179261],,,S028,3B,2024_May_06_1652,experiment_SCZ_Long_corrected,2021.2.3,48.00452394948917,
"0.265267168383144,1.0,Task,em_119p.wav,em_119tw_1.wav,None,88.0,Schließ doch mal die,Tür,5.0,23.0,44.0,0.522727273,3.0,0.068181818,0.8878511,Stimuli/em_119p.wav,Stimuli/em_119tw_1.wav,2.0,1.0,21.0,0,1,1,1,,,,,,,,,,,,,36.80766059999587,39.11823059996823,37.996370999957435,38.409192999999505,38.40961435999488,None,38.87924410001142,39.09725459996844,39.09725459996844,None,0.01111111044883728,4.576911200012546,39.09725459996844,None,41.40944069996476,None,2,""[0.6482100999564864, 0.9396504000178538]"",""[0.6482188999652863, 0.9396555000566877]"",42.347186399973,None,42.347186399973,None,0.02037037,-0.32222223,1,0,0,text_8,0.013818559993524104,None,43.36777879996225,45.57544230000349,C:\Users\Franziska\Desktop\S1_language prediction\data/S028_experiment_SCZ_Long_corrected_2024_May_06_1652_mic_2_recorded\recording_mic_2_trials_1.wav,0.017285359965171665,2.222169059969019,45.53447289997712,None,0.01111111044883728,1.805921799968928,45.644788999983575,None,45.644788999983575,None,47.47132710000733,None,2,""[0.6071542000281624, 0.8747826000326313]"",""[0.6071605000179261, 0.874787800014019]"",,,S028,3B,2024_May_06_1652,experiment_SCZ_Long_corrected,2021.2.3,48.00452394948917,"
"0.4307483456913422,1.0,Task,eh_223p.wav,eh_223tw_6.wav,None,124.0,Durch die starken Wellen sahen sie nicht den,Delfin,9.0,1.0,21.0,0.047619048,11.0,0.523809524,2.21540568,Stimuli/eh_223p.wav,Stimuli/eh_223tw_6.wav,1.0,6.0,16.0,0,2,2,33,,,,,,,,,,,,,48.37626150000142,52.01226319995476,50.73661339998944,51.13708149996819,51.13768325999845,None,51.79039229999762,51.99117499997374,51.99117499997374,None,0.7203703671693802,5.213639200024772,51.99117499997374,None,53.616904800001066,None,3,""[0.6482100999564864, 0.9396504000178538, 0.6036447999649681]"",""[0.6482188999652863, 0.9396555000566877, 0.6036496000015177]"",54.2201403999934,None,54.2201403999934,None,-0.043518517,-0.32222223,1,0,0,text_8,0.015232259989716113,None,54.84876309998799,57.05341499997303,C:\Users\Franziska\Desktop\S1_language prediction\data/S028_experiment_SCZ_Long_corrected_2024_May_06_1652_mic_2_recorded\recording_mic_2_trials_2.wav,0.015547260059975088,2.219057860027533,57.0333047999884,None,0.5824074074625969,1.34917190001579,57.16458819998661,None,57.16458819998661,None,58.53214929997921,None,3,""[0.6071542000281624, 0.8747826000326313, 0.667181900003925]"",""[0.6071605000179261, 0.874787800014019, 0.6671866000397131]"",,,S028,3B,2024_May_06_1652,experiment_SCZ_Long_corrected,2021.2.3,48.00452394948917,"
"0.2813420768234401,1.0,Task,em_317p.wav,em_317tw_3.wav,None,106.0,In dem kleinen Zimmer standen viel zu viele,Möbel,9.0,52.0,83.0,0.626506024,15.0,0.180722892,1.577794809,Stimuli/em_317p.wav,Stimuli/em_317tw_3.wav,2.0,3.0,23.0,0,3,3,4,,,,,,,,,,,,,59.22559599997476,63.19826390000526,61.88129160000244,62.28198909998173,62.28240875996416,None,62.968988300010096,63.17723919998389,63.17723919998389,None,0.014814823865890503,5.864437399955932,63.17723919998389,None,65.1152560999617,None,4,""[0.6482100999564864, 0.9396504000178538, 0.6036447999649681, 0.8125623000087216]"",""[0.6482188999652863, 0.9396555000566877, 0.6036496000015177, 0.812567199987825]"",65.9275811999687,None,65.9275811999687,None,-0.044444446,-0.29166666,1,0,0,text_8,0.015117959992494434,None,66.93437579995953,69.13567609997699,C:\Users\Franziska\Desktop\S1_language prediction\data/S028_experiment_SCZ_Long_corrected_2024_May_06_1652_mic_2_recorded\recording_mic_2_trials_3.wav,0.013006960041821003,2.213091460056603,69.11496239999542,None,0.01574075222015381,1.902044599992223,69.23229129996616,None,69.23229129996616,None,71.15658229996916,None,4,""[0.6071542000281624, 0.8747826000326313, 0.667181900003925, 0.8965279000112787]"",""[0.6071605000179261, 0.874787800014019, 0.6671866000397131, 0.8965324999880977]"",,,S028,3B,2024_May_06_1652,experiment_SCZ_Long_corrected,2021.2.3,48.00452394948917,"
"0.3990470731566198,1.0,Task,el_091p.wav,el_091tw_3.wav,None,38.0,Als Kind kam Egon immer zu spät zur,Schule,9.0,52.0,53.0,0.981132075,2.0,0.037735849,0.093599963,Stimuli/el_091p.wav,Stimuli/el_091tw_3.wav,3.0,3.0,33.0,0,4,4,27,,,,,,,,,,,,,72.07711239997298,76.00938639999367,74.6779032999766,75.09285229997477,75.09276355998591,None,75.77243189996807,75.98818909999682,75.98818909999682,None,0.6509259194135666,6.220895599981304,75.98818909999682,None,78.32270349998726,None,5,""[0.6482100999564864, 0.9396504000178538, 0.6036447999649681, 0.8125623000087216, 0.5835758000030182]"",""[0.6482188999652863, 0.9396555000566877, 0.6036496000015177, 0.812567199987825, 0.5835811999859288]"",78.90531689999625,None,78.90531689999625,None,-0.0064814813,-0.30277777,1,0,0,text_8,0.014903360104653984,None,79.6554243999999,81.86321280000266,C:\Users\Franziska\Desktop\S1_language prediction\data/S028_experiment_SCZ_Long_corrected_2024_May_06_1652_mic_2_recorded\recording_mic_2_trials_4.wav,0.0168921600561589,2.2217740600463003,81.82176889997208,None,0.4685185179114342,1.4461578000336885,81.93688279995695,None,81.93688279995695,None,83.40500269999029,None,5,""[0.6071542000281624, 0.8747826000326313, 0.667181900003925, 0.8965279000112787, 0.8335629000212066]"",""[0.6071605000179261, 0.874787800014019, 0.6671866000397131, 0.8965324999880977, 0.8335683000041172]"",,,S028,3B,2024_May_06_1652,experiment_SCZ_Long_corrected,2021.2.3,48.00452394948917,"
"0.3744685665085207,1.0,Task,eh_352p.wav,eh_352tw_1.wav,None,150.0,Manche Menschen stottern bei,Nervosität,5.0,1.0,83.0,0.012048193,35.0,0.421686747,3.15254001,Stimuli/eh_352p.wav,Stimuli/eh_352tw_1.wav,1.0,1.0,11.0,0,5,5,21,,,,,,,,,,,,,84.25824920000741,87.69612129998859,86.01946639997186,86.42525829997612,86.42496025996516,None,87.45766189997084,87.67517729999963,87.67517729999963,None,0.017592579126358032,5.3900117999874055,87.67517729999963,None,89.67509679996874,None,6,""[0.6482100999564864, 0.9396504000178538, 0.6036447999649681, 0.8125623000087216, 0.5835758000030182, 0.6669443999999203]"",""[0.6482188999652863, 0.9396555000566877, 0.6036496000015177, 0.812567199987825, 0.5835811999859288, 0.6669492000364698]"",90.34094500000356,None,90.34094500000356,None,-0.015740741,-0.31111112,1,0,0,text_8,0.015367960091680288,None,91.61361429997487,93.82001349999337,C:\Users\Franziska\Desktop\S1_language prediction\data/S028_experiment_SCZ_Long_corrected_2024_May_06_1652_mic_2_recorded\recording_mic_2_trials_5.wav,0.016336360073182732,2.2201734600239433,93.77858089999063,None,0.014814823865890503,1.9029789000051096,93.89463960001012,None,93.89463960001012,None,95.81982829998014,None,6,""[0.6071542000281624, 0.8747826000326313, 0.667181900003925, 0.8965279000112787, 0.8335629000212066, 1.104909299989231]"",""[0.6071605000179261, 0.874787800014019, 0.6671866000397131, 0.8965324999880977, 0.8335683000041172, 1.1049143999698572]"",,,S028,3B,2024_May_06_1652,experiment_SCZ_Long_corrected,2021.2.3,48.00452394948917,"
"0.4354869119186529,1.0,Task,el_189p.wav,el_189tw_6.wav,None,7.0,Trotz des Regens ging Herr Müller ohne,Schirm,8.0,41.0,44.0,0.931818182,2.0,0.045454545,0.248910279,Stimuli/el_189p.wav,Stimuli/el_189tw_6.wav,3.0,6.0,36.0,0,6,6,35,,,,,,,,,,,,,96.94875250000041,100.63166249997448,99.36594079999486,99.7775510000065,99.77756995996461,None,100.40552129998105,100.61047650000546,100.61047650000546,None,0.7074074000120163,6.365162200003397,100.61047650000546,None,103.33954279997852,None,7,""[0.6482100999564864, 0.9396504000178538, 0.6036447999649681, 0.8125623000087216, 0.5835758000030182, 0.6669443999999203, 0.6249039000249468]"",""[0.6482188999652863, 0.9396555000566877, 0.6036496000015177, 0.812567199987825, 0.5835811999859288, 0.6669492000364698, 0.6249088000040501]"",103.96476800000528,None,103.96476800000528,None,0.0027777778,-0.3148148,1,0,0,text_8,0.015182559960521758,None,104.71505050000269,106.92278349999106,C:\Users\Franziska\Desktop\S1_language prediction\data/S028_experiment_SCZ_Long_corrected_2024_May_06_1652_mic_2_recorded\recording_mic_2_trials_6.wav,0.0169159600045532,2.220791960018687,106.88125069998205,None,0.525000000372529,1.2407779000350274,106.99507830000948,None,106.99507830000948,None,108.25607959995978,None,7,""[0.6071542000281624, 0.8747826000326313, 0.667181900003925, 0.8965279000112787, 0.8335629000212066, 1.104909299989231, 0.8959583999821916]"",""[0.6071605000179261, 0.874787800014019, 0.6671866000397131, 0.8965324999880977, 0.8335683000041172, 1.1049143999698572, 0.8959744999883696]"",,,S028,3B,2024_May_06_1652,experiment_SCZ_Long_corrected,2021.2.3,48.00452394948917,"
"0.4305952415426308,1.0,Task,el_072p.wav,el_072tw_1.wav,None,28.0,Das Schiff verschwand im dichten,Nebel,6.0,52.0,52.0,1.0,1.0,0.019230769,0.0,Stimuli/el_072p.wav,Stimuli/el_072tw_1.wav,3.0,1.0,31.0,0,7,7,32,,,,,,,,,,,,,109.17732149997028,112.23486329999287,110.93731489998754,111.338442999986,111.33855225999142,None,112.01404899999034,112.21351149998372,112.21351149998372,None,0.023148149251937866,5.343268800002988,112.21351149998372,None,114.54686129995389,None,8,""[0.6482100999564864, 0.9396504000178538, 0.6036447999649681, 0.8125623000087216, 0.5835758000030182, 0.6669443999999203, 0.6249039000249468, 1.0212335999822244]"",""[0.6482188999652863, 0.9396555000566877, 0.6036496000015177, 0.812567199987825, 0.5835811999859288, 0.6669492000364698, 0.6249088000040501, 1.0212388999643736]"",115.56775980000384,None,115.56775980000384,None,-0.030555556,-0.30462962,1,0,0,text_8,0.015438359987456352,None,117.54793279996375,119.75479209999321,C:\Users\Franziska\Desktop\S1_language prediction\data/S028_experiment_SCZ_Long_corrected_2024_May_06_1652_mic_2_recorded\recording_mic_2_trials_7.wav,0.01683436002349481,2.221158660016954,119.71323669998674,None,0.032407402992248535,1.985930000024382,119.83061959996121,None,119.83061959996121,None,121.83828009996796,None,8,""[0.6071542000281624, 0.8747826000326313, 0.667181900003925, 0.8965279000112787, 0.8335629000212066, 1.104909299989231, 0.8959583999821916, 1.0837264999863692]"",""[0.6071605000179261, 0.874787800014019, 0.6671866000397131, 0.8965324999880977, 0.8335683000041172, 1.1049143999698572, 0.8959744999883696, 1.0837315000244416]"",,,S028,3B,2024_May_06_1652,experiment_SCZ_Long_corrected,2021.2.3,48.00452394948917,"
"0.287213858009315,1.0,Task,eh_212p.wav,eh_212tw_1.wav,None,148.0,Heute essen wir nicht den,Eintopf,6.0,1.0,21.0,0.047619048,14.0,0.666666667,2.49149372,Stimuli/eh_212p.wav,Stimuli/eh_212tw_1.wav,1.0,1.0,11.0,0,8,8,6,,,,,,,,,,,,,122.94628179998836,125.94131520000519,124.5590208999929,124.96199149999302,124.96219445995521,None,125.70892679999815,125.92025089997333,125.92025089997333,None,0.013888895511627197,4.84633179998491,125.92025089997333,None,127.81629220000468,None,9,""[0.6482100999564864, 0.9396504000178538, 0.6036447999649681, 0.8125623000087216, 0.5835758000030182, 0.6669443999999203, 0.6249039000249468, 1.0212335999822244, 0.8967841000412591]"",""[0.6482188999652863, 0.9396555000566877, 0.6036496000015177, 0.812567199987825, 0.5835811999859288, 0.6669492000364698, 0.6249088000040501, 1.0212388999643736, 0.8967896000249311]"",128.71165760001168,None,128.71165760001168,None,-0.050925925,-0.30555555,1,0,0,text_8,0.013484660012181848,None,131.57222430000547,133.77384789998177,C:\Users\Franziska\Desktop\S1_language prediction\data/S028_experiment_SCZ_Long_corrected_2024_May_06_1652_mic_2_recorded\recording_mic_2_trials_8.wav,0.014902059978339821,2.2172600599587895,133.75330300000496,None,0.03981480002403259,2.0902554000495,133.8690399999614,None,133.8690399999614,None,135.9816407999606,None,9,""[0.6071542000281624, 0.8747826000326313, 0.667181900003925, 0.8965279000112787, 0.8335629000212066, 1.104909299989231, 0.8959583999821916, 1.0837264999863692, 1.251645800017286]"",""[0.6071605000179261, 0.874787800014019, 0.6671866000397131, 0.8965324999880977, 0.8335683000041172, 1.1049143999698572, 0.8959744999883696, 1.0837315000244416, 1.2516562000382692]"",,,S028,3B,2024_May_06_1652,experiment_SCZ_Long_corrected,2021.2.3,48.00452394948917,"
"0.338829355287623,1.0,Task,em_232p.wav,em_232tw_1.wav,None,94.0,""Die Lampe war sehr hell, sie leuchtet direkt auf den"",Tisch,11.0,12.0,21.0,0.571428571,8.0,0.380952381,1.467631168,Stimuli/em_232p.wav,Stimuli/em_232tw_1.wav,2.0,1.0,21.0,0,9,9,13,,,,,,,,,,,,,137.2729282999644,141.54380549996858,140.37172419996932,140.77278379997006,140.7727144599543,None,141.32012449996546,141.52266249997774,141.52266249997774,None,0.010185182094573975,5.827691800019238,141.52266249997774,None,143.12708259996725,None,10,""[0.6482100999564864, 0.9396504000178538, 0.6036447999649681, 0.8125623000087216, 0.5835758000030182, 0.6669443999999203, 0.6249039000249468, 1.0212335999822244, 0.8967841000412591, 1.082949000003282]"",""[0.6482188999652863, 0.9396555000566877, 0.6036496000015177, 0.812567199987825, 0.5835811999859288, 0.6669492000364698, 0.6249088000040501, 1.0212388999643736, 0.8967896000249311, 1.082954499986954]"",144.2099017999717,None,144.2099017999717,None,-0.047222223,-0.30925927,1,0,0,text_8,0.015157260000705719,None,147.91987459996017,150.12627569999313,C:\Users\Franziska\Desktop\S1_language prediction\data/S028_experiment_SCZ_Long_corrected_2024_May_06_1652_mic_2_recorded\recording_mic_2_trials_9.wav,0.01460306002991274,2.215874059998896,150.10591209999984,None,0.01574075222015381,3.887903800001368,150.2170926000108,None,150.2170926000108,None,154.1258961999556,None,10,""[0.6071542000281624, 0.8747826000326313, 0.667181900003925, 0.8965279000112787, 0.8335629000212066, 1.104909299989231, 0.8959583999821916, 1.0837264999863692, 1.251645800017286, 1.0439069999847561]"",""[0.6071605000179261, 0.874787800014019, 0.6671866000397131, 0.8965324999880977, 0.8335683000041172, 1.1049143999698572, 0.8959744999883696, 1.0837315000244416, 1.2516562000382692, 1.0439118000213057]"",,,S028,3B,2024_May_06_1652,experiment_SCZ_Long_corrected,2021.2.3,48.00452394948917,"
"0.5159519425001284,1.0,Task,eh_368p.wav,eh_368tw_3.wav,None,155.0,Im Laden liegt die Weihnachtsdeko direkt neben den,Schüsseln,9.0,1.0,29.0,0.034482759,29.0,1.0,3.31949258,Stimuli/eh_368p.wav,Stimuli/eh_368tw_3.wav,1.0,3.0,13.0,0,10,10,47,,,,,,,,,,,,,155.223157099972,159.72867849998875,158.31627680000383,158.72898989997339,158.72925115997205,None,159.5054629999795,159.707996299956,159.707996299956,None,0.12314814329147339,7.4799014999880455,159.707996299956,None,162.72863569995388,None,11,""[0.6482100999564864, 0.9396504000178538, 0.6036447999649681, 0.8125623000087216, 0.5835758000030182, 0.6669443999999203, 0.6249039000249468, 1.0212335999822244, 0.8967841000412591, 1.082949000003282, 0.771348400041461]"",""[0.6482188999652863, 0.9396555000566877, 0.6036496000015177, 0.812567199987825, 0.5835811999859288, 0.6669492000364698, 0.6249088000040501, 1.0212388999643736, 0.8967896000249311, 1.082954499986954, 0.7713534000213258]"",163.49935779999942,None,163.49935779999942,None,-0.08796296,-0.30555555,1,0,0,text_8,0.014689759991597384,None,164.33432089997223,166.54097259999253,C:\Users\Franziska\Desktop\S1_language prediction\data/S028_experiment_SCZ_Long_corrected_2024_May_06_1652_mic_2_recorded\recording_mic_2_trials_10.wav,0.01603726000757888,2.2200137600302696,166.52070659998572,None,0.06759259104728699,1.4937129000318237,166.6366022999864,None,166.6366022999864,None,168.14540539996233,None,11,""[0.6071542000281624, 0.8747826000326313, 0.667181900003925, 0.8965279000112787, 0.8335629000212066, 1.104909299989231, 0.8959583999821916, 1.0837264999863692, 1.251645800017286, 1.0439069999847561, 1.3147458999883384]"",""[0.6071605000179261, 0.874787800014019, 0.6671866000397131, 0.8965324999880977, 0.8335683000041172, 1.1049143999698572, 0.8959744999883696, 1.0837315000244416, 1.2516562000382692, 1.0439118000213057, 1.3147549999994226]"",,,S028,3B,2024_May_06_1652,experiment_SCZ_Long_corrected,2021.2.3,48.00452394948917,"
"0.2644518796672466,1.0,Task,el_126p.wav,el_126tw_3.wav,None,39.0,Der Reiter führte sein schönes,Pferd,6.0,38.0,44.0,0.863636364,3.0,0.068181818,0.459747279,Stimuli/el_126p.wav,Stimuli/el_126tw_3.wav,3.0,3.0,33.0,0,11,11,0,,,,,,,,,,,,,169.48099269997329,172.89397749997443,171.52435789996525,171.93651029997272,171.9364530599909,None,172.6735711999936,172.87327569996705,172.87327569996705,None,0.6814814805984497,4.617734500032384,172.87327569996705,None,174.1234947000048,None,12,""[0.6482100999564864, 0.9396504000178538, 0.6036447999649681, 0.8125623000087216, 0.5835758000030182, 0.6669443999999203, 0.6249039000249468, 1.0212335999822244, 0.8967841000412591, 1.082949000003282, 0.771348400041461, 0.6457194000249729]"",""[0.6482188999652863, 0.9396555000566877, 0.6036496000015177, 0.812567199987825, 0.5835811999859288, 0.6669492000364698, 0.6249088000040501, 1.0212388999643736, 0.8967896000249311, 1.082954499986954, 0.7713534000213258, 0.6457244000048377]"",174.7688251999789,None,174.7688251999789,None,0.019444445,-0.31574073,1,0,0,text_8,0.014538960065692663,None,175.3814688999555,177.5815053000115,C:\Users\Franziska\Desktop\S1_language prediction\data/S028_experiment_SCZ_Long_corrected_2024_May_06_1652_mic_2_recorded\recording_mic_2_trials_11.wav,0.014536660048179328,2.216409360000398,177.56051899999147,None,0.4962962963618338,1.2756614000536501,177.6813148999936,None,177.6813148999936,None,178.97713640000438,None,12,""[0.6071542000281624, 0.8747826000326313, 0.667181900003925, 0.8965279000112787, 0.8335629000212066, 1.104909299989231, 0.8959583999821916, 1.0837264999863692, 1.251645800017286, 1.0439069999847561, 1.3147458999883384, 0.7715239999815822]"",""[0.6071605000179261, 0.874787800014019, 0.6671866000397131, 0.8965324999880977, 0.8335683000041172, 1.1049143999698572, 0.8959744999883696, 1.0837315000244416, 1.2516562000382692, 1.0439118000213057, 1.3147549999994226, 0.7715291000204161]"",,,S028,3B,2024_May_06_1652,experiment_SCZ_Long_corrected,2021.2.3,48.00452394948917,"
"0.4049535964788302,1.0,Task,eh_378p.wav,eh_378tw_12.wav,None,133.0,Durch die Gespraeche hatte sie Einblick in die,Verhältnisse,9.0,1.0,30.0,0.033333333,23.0,0.766666667,2.99432829,Stimuli/eh_378p.wav,Stimuli/eh_378tw_12.wav,1.0,12.0,112.0,0,12,12,28,,,,,,,,,,,,,179.77047190000303,183.7472657999606,182.09342469996773,182.49769529997138,182.49768235997763,None,183.516035299981,183.7269091999624,183.7269091999624,None,0.8675926029682159,5.699713499983773,183.7269091999624,None,185.4972187000094,None,13,""[0.6482100999564864, 0.9396504000178538, 0.6036447999649681, 0.8125623000087216, 0.5835758000030182, 0.6669443999999203, 0.6249039000249468, 1.0212335999822244, 0.8967841000412591, 1.082949000003282, 0.771348400041461, 0.6457194000249729, 0.7918199999839999]"",""[0.6482188999652863, 0.9396555000566877, 0.6036496000015177, 0.812567199987825, 0.5835811999859288, 0.6669492000364698, 0.6249088000040501, 1.0212388999643736, 0.8967896000249311, 1.082954499986954, 0.7713534000213258, 0.6457244000048377, 0.791824700019788]"",186.28866869997,None,186.28866869997,None,0.027777778,-0.30833334,1,0,0,text_8,0.014176759985275567,None,187.49772379995557,189.70515609998256,C:\Users\Franziska\Desktop\S1_language prediction\data/S028_experiment_SCZ_Long_corrected_2024_May_06_1652_mic_2_recorded\recording_mic_2_trials_12.wav,0.016457160003483295,2.2204381600022316,189.66364839999005,None,0.7379629611968994,3.1322419000207447,189.7794384000008,None,189.7794384000008,None,192.9342878999887,None,13,""[0.6071542000281624, 0.8747826000326313, 0.667181900003925, 0.8965279000112787, 0.8335629000212066, 1.104909299989231, 0.8959583999821916, 1.0837264999863692, 1.251645800017286, 1.0439069999847561, 1.3147458999883384, 0.7715239999815822, 0.8755936999805272]"",""[0.6071605000179261, 0.874787800014019, 0.6671866000397131, 0.8965324999880977, 0.8335683000041172, 1.1049143999698572, 0.8959744999883696, 1.0837315000244416, 1.2516562000382692, 1.0439118000213057, 1.3147549999994226, 0.7715291000204161, 0.8755984999588691]"",,,S028,3B,2024_May_06_1652,experiment_SCZ_Long_corrected,2021.2.3,48.00452394948917,"
"0.395292294692429,1.0,Task,el_062p.wav,el_062tw_6.wav,None,8.0,Nur noch wenige Länder haben einen,König,7.0,45.0,51.0,0.882352941,6.0,0.117647059,0.545823546,Stimuli/el_062p.wav,Stimuli/el_062tw_6.wav,3.0,6.0,36.0,0,13,13,26,,,,,,,,,,,,,193.83681539999088,197.2875716999988,195.9901763999951,196.39143359998707,196.39156495998614,None,197.0587252000114,197.2667064999696,197.2667064999696,None,0.019444435834884644,6.738132799975574,197.2667064999696,None,200.59906899998896,None,14,""[0.6482100999564864, 0.9396504000178538, 0.6036447999649681, 0.8125623000087216, 0.5835758000030182, 0.6669443999999203, 0.6249039000249468, 1.0212335999822244, 0.8967841000412591, 1.082949000003282, 0.771348400041461, 0.6457194000249729, 0.7918199999839999, 0.8131974000134505]"",""[0.6482188999652863, 0.9396555000566877, 0.6036496000015177, 0.812567199987825, 0.5835811999859288, 0.6669492000364698, 0.6249088000040501, 1.0212388999643736, 0.8967896000249311, 1.082954499986954, 0.7713534000213258, 0.6457244000048377, 0.791824700019788, 0.8132025999948382]"",201.4117408999591,None,201.4117408999591,None,-0.026851851,-0.31851852,1,0,0,text_8,0.014677860017400235,None,202.1852417999762,204.39113409997663,C:\Users\Franziska\Desktop\S1_language prediction\data/S028_experiment_SCZ_Long_corrected_2024_May_06_1652_mic_2_recorded\recording_mic_2_trials_13.wav,0.015466060023754835,2.219190560048446,204.37071879999712,None,0.01574075222015381,1.6342499000020325,204.48640429996885,None,204.48640429996885,None,206.1402086999733,None,14,""[0.6071542000281624, 0.8747826000326313, 0.667181900003925, 0.8965279000112787, 0.8335629000212066, 1.104909299989231, 0.8959583999821916, 1.0837264999863692, 1.251645800017286, 1.0439069999847561, 1.3147458999883384, 0.7715239999815822, 0.8755936999805272, 0.9341479000286199]"",""[0.6071605000179261, 0.874787800014019, 0.6671866000397131, 0.8965324999880977, 0.8335683000041172, 1.1049143999698572, 0.8959744999883696, 1.0837315000244416, 1.2516562000382692, 1.0439118000213057, 1.3147549999994226, 0.7715291000204161, 0.8755984999588691, 0.9341597000020556]"",,,S028,3B,2024_May_06_1652,experiment_SCZ_Long_corrected,2021.2.3,48.00452394948917,"
"0.5079938356338195,1.0,Task,em_004p.wav,em_004tw_6.wav,None,42.0,Durch den starken Regen erkannten sie nicht einmal die,Straße,10.0,26.0,47.0,0.553191489,18.0,0.382978723,1.918680887,Stimuli/em_004p.wav,Stimuli/em_004tw_6.wav,2.0,6.0,26.0,0,14,14,44,,,,,,,,,,,,,207.10102909995476,211.82743479998317,210.24909559998196,210.66049789998215,210.66058726001066,None,211.6059685999644,211.80689889995847,211.80689889995847,None,0.6990740746259689,7.139012899948284,211.80689889995847,None,214.26476359996013,None,15,""[0.6482100999564864, 0.9396504000178538, 0.6036447999649681, 0.8125623000087216, 0.5835758000030182, 0.6669443999999203, 0.6249039000249468, 1.0212335999822244, 0.8967841000412591, 1.082949000003282, 0.771348400041461, 0.6457194000249729, 0.7918199999839999, 0.8131974000134505, 1.0419344999827445]"",""[0.6482188999652863, 0.9396555000566877, 0.6036496000015177, 0.812567199987825, 0.5835811999859288, 0.6669492000364698, 0.6249088000040501, 1.0212388999643736, 0.8967896000249311, 1.082954499986954, 0.7713534000213258, 0.6457244000048377, 0.791824700019788, 0.8132025999948382, 1.0419393999618478]"",215.30638129997533,None,215.30638129997533,None,-0.033333335,-0.3101852,1,0,0,text_8,0.015255359990987927,None,216.72498780000024,218.93060119997244,C:\Users\Franziska\Desktop\S1_language prediction\data/S028_experiment_SCZ_Long_corrected_2024_May_06_1652_mic_2_recorded\recording_mic_2_trials_14.wav,0.016710360068827868,2.221186460054014,218.88930529996287,None,0.5944444462656975,1.723262200015597,219.0000501999748,None,219.0000501999748,None,220.74331639998127,None,15,""[0.6071542000281624, 0.8747826000326313, 0.667181900003925, 0.8965279000112787, 0.8335629000212066, 1.104909299989231, 0.8959583999821916, 1.0837264999863692, 1.251645800017286, 1.0439069999847561, 1.3147458999883384, 0.7715239999815822, 0.8755936999805272, 0.9341479000286199, 0.7600970999919809]"",""[0.6071605000179261, 0.874787800014019, 0.6671866000397131, 0.8965324999880977, 0.8335683000041172, 1.1049143999698572, 0.8959744999883696, 1.0837315000244416, 1.2516562000382692, 1.0439118000213057, 1.3147549999994226, 0.7715291000204161, 0.8755984999588691, 0.9341597000020556, 0.760103499982506]"",,,S028,3B,2024_May_06_1652,experiment_SCZ_Long_corrected,2021.2.3,48.00452394948917,"
"0.2729115753789344,1.0,Task,em_010p.wav,em_010tw_3.wav,None,115.0,Tina bahnte sich eilig den Weg durch die,Menge,9.0,27.0,47.0,0.574468085,11.0,0.234042553,1.514360138,Stimuli/em_010p.wav,Stimuli/em_010tw_3.wav,2.0,3.0,23.0,0,15,15,2,,,,,,,,,,,,,221.53204489999916,225.3672826999682,224.1412334999768,224.5550367999822,224.55538135997486,None,225.1324277999811,225.34671229997184,225.34671229997184,None,0.018518507480621338,6.64260879997164,225.34671229997184,None,228.20052469999064,None,16,""[0.6482100999564864, 0.9396504000178538, 0.6036447999649681, 0.8125623000087216, 0.5835758000030182, 0.6669443999999203, 0.6249039000249468, 1.0212335999822244, 0.8967841000412591, 1.082949000003282, 0.771348400041461, 0.6457194000249729, 0.7918199999839999, 0.8131974000134505, 1.0419344999827445, 0.939691599982325]"",""[0.6482188999652863, 0.9396555000566877, 0.6036496000015177, 0.812567199987825, 0.5835811999859288, 0.6669492000364698, 0.6249088000040501, 1.0212388999643736, 0.8967896000249311, 1.082954499986954, 0.7713534000213258, 0.6457244000048377, 0.791824700019788, 0.8132025999948382, 1.0419393999618478, 0.9396969000226818]"",229.13804270001128,None,229.13804270001128,None,0.012037037,-0.32407406,1,0,0,text_8,0.013239260006230325,None,231.63810330000706,233.84623329999158,C:\Users\Franziska\Desktop\S1_language prediction\data/S028_experiment_SCZ_Long_corrected_2024_May_06_1652_mic_2_recorded\recording_mic_2_trials_15.wav,0.01700325997080654,2.2216367599903606,233.80483390000882,None,0.04722222685813904,2.6133492000517435,233.91837689996464,None,233.91837689996464,None,236.55367729999125,None,16,""[0.6071542000281624, 0.8747826000326313, 0.667181900003925, 0.8965279000112787, 0.8335629000212066, 1.104909299989231, 0.8959583999821916, 1.0837264999863692, 1.251645800017286, 1.0439069999847561, 1.3147458999883384, 0.7715239999815822, 0.8755936999805272, 0.9341479000286199, 0.7600970999919809, 0.6879288000054657]"",""[0.6071605000179261, 0.874787800014019, 0.6671866000397131, 0.8965324999880977, 0.8335683000041172, 1.1049143999698572, 0.8959744999883696, 1.0837315000244416, 1.2516562000382692, 1.0439118000213057, 1.3147549999994226, 0.7715291000204161, 0.8755984999588691, 0.9341597000020556, 0.760103499982506, 0.6879335000412539]"",,,S028,3B,2024_May_06_1652,experiment_SCZ_Long_corrected,2021.2.3,48.00452394948917,"
"0.4832507547218245,1.0,Task,el_112p.wav,el_112tw_12.wav,None,20.0,Daniel wartete und las ein,Buch,6.0,44.0,44.0,1.0,1.0,0.022727273,0.0,Stimuli/el_112p.wav,Stimuli/el_112tw_12.wav,3.0,12.0,312.0,0,16,16,38,,,,,,,,,,,,,237.26576869998826,240.55289519997314,239.33666859997902,239.74082459998317,239.74055225999328,None,240.33394879999105,240.53255389997503,240.53255389997503,None,0.827777773141861,4.9286601999774575,240.53255389997503,None,242.21955999999773,None,17,""[0.6482100999564864, 0.9396504000178538, 0.6036447999649681, 0.8125623000087216, 0.5835758000030182, 0.6669443999999203, 0.6249039000249468, 1.0212335999822244, 0.8967841000412591, 1.082949000003282, 0.771348400041461, 0.6457194000249729, 0.7918199999839999, 0.8131974000134505, 1.0419344999827445, 0.939691599982325, 0.5627619999577291]"",""[0.6482188999652863, 0.9396555000566877, 0.6036496000015177, 0.812567199987825, 0.5835811999859288, 0.6669492000364698, 0.6249088000040501, 1.0212388999643736, 0.8967896000249311, 1.082954499986954, 0.7713534000213258, 0.6457244000048377, 0.791824700019788, 0.8132025999948382, 1.0419393999618478, 0.9396969000226818, 0.5627676000003703]"",242.78223849995993,None,242.78223849995993,None,0.0027777778,-0.3148148,1,0,0,text_8,0.014449460082687438,None,243.28687000001082,245.48992009996437,C:\Users\Franziska\Desktop\S1_language prediction\data/S028_experiment_SCZ_Long_corrected_2024_May_06_1652_mic_2_recorded\recording_mic_2_trials_16.wav,0.01566086005186662,2.218994160008151,245.46976509998785,None,0.7629629671573639,1.073814399947878,245.58242479996989,None,245.58242479996989,None,246.68111399997724,None,17,""[0.6071542000281624, 0.8747826000326313, 0.667181900003925, 0.8965279000112787, 0.8335629000212066, 1.104909299989231, 0.8959583999821916, 1.0837264999863692, 1.251645800017286, 1.0439069999847561, 1.3147458999883384, 0.7715239999815822, 0.8755936999805272, 0.9341479000286199, 0.7600970999919809, 0.6879288000054657, 0.8753570999833755]"",""[0.6071605000179261, 0.874787800014019, 0.6671866000397131, 0.8965324999880977, 0.8335683000041172, 1.1049143999698572, 0.8959744999883696, 1.0837315000244416, 1.2516562000382692, 1.0439118000213057, 1.3147549999994226, 0.7715291000204161, 0.8755984999588691, 0.9341597000020556, 0.760103499982506, 0.6879335000412539, 0.8753628999693319]"",,,S028,3B,2024_May_06_1652,experiment_SCZ_Long_corrected,2021.2.3,48.00452394948917,"
"0.4898243148291854,1.0,Task,el_142p.wav,el_142tw_1.wav,None,23.0,Setz dich nicht auf die frisch gestrichene,Bank,8.0,39.0,44.0,0.886363636,3.0,0.068181818,0.410915051,Stimuli/el_142p.wav,Stimuli/el_142tw_1.wav,3.0,1.0,31.0,0,17,17,42,,,,,,,,,,,,,247.5771007000003,251.0309648999828,249.78723630000604,250.1974808999803,250.19816785996082,None,250.8015679999953,251.00997419998748,251.00997419998748,None,0.017592579126358032,4.762246400001459,251.00997419998748,None,252.36437029996887,None,18,""[0.6482100999564864, 0.9396504000178538, 0.6036447999649681, 0.8125623000087216, 0.5835758000030182, 0.6669443999999203, 0.6249039000249468, 1.0212335999822244, 0.8967841000412591, 1.082949000003282, 0.771348400041461, 0.6457194000249729, 0.7918199999839999, 0.8131974000134505, 1.0419344999827445, 0.939691599982325, 0.5627619999577291, 0.979637400014326]"",""[0.6482188999652863, 0.9396555000566877, 0.6036496000015177, 0.812567199987825, 0.5835811999859288, 0.6669492000364698, 0.6249088000040501, 1.0212388999643736, 0.8967896000249311, 1.082954499986954, 0.7713534000213258, 0.6457244000048377, 0.791824700019788, 0.8132025999948382, 1.0419393999618478, 0.9396969000226818, 0.5627676000003703, 0.9796426999964751]"",253.34330389997922,None,253.34330389997922,None,-0.031481482,-0.31388888,1,0,0,text_8,0.014604659983888268,None,254.405845900008,256.6142337999772,C:\Users\Franziska\Desktop\S1_language prediction\data/S028_experiment_SCZ_Long_corrected_2024_May_06_1652_mic_2_recorded\recording_mic_2_trials_17.wav,0.016534760012291372,2.220822860021144,256.5728526999592,None,0.023148149251937866,2.3158091999939643,256.70087860000785,None,256.70087860000785,None,259.0302568000043,None,18,""[0.6071542000281624, 0.8747826000326313, 0.667181900003925, 0.8965279000112787, 0.8335629000212066, 1.104909299989231, 0.8959583999821916, 1.0837264999863692, 1.251645800017286, 1.0439069999847561, 1.3147458999883384, 0.7715239999815822, 0.8755936999805272, 0.9341479000286199, 0.7600970999919809, 0.6879288000054657, 0.8753570999833755, 0.8121922999853268]"",""[0.6071605000179261, 0.874787800014019, 0.6671866000397131, 0.8965324999880977, 0.8335683000041172, 1.1049143999698572, 0.8959744999883696, 1.0837315000244416, 1.2516562000382692, 1.0439118000213057, 1.3147549999994226, 0.7715291000204161, 0.8755984999588691, 0.9341597000020556, 0.760103499982506, 0.6879335000412539, 0.8753628999693319, 0.8121975000249222]"",,,S028,3B,2024_May_06_1652,experiment_SCZ_Long_corrected,2021.2.3,48.00452394948917,"
"0.3832992616117615,1.0,Task,em_003p.wav,em_003tw_3.wav,None,108.0,Sie kehrten den Staub in eine,Ecke,7.0,26.0,48.0,0.541666667,9.0,0.1875,1.409172266,Stimuli/em_003p.wav,Stimuli/em_003tw_3.wav,2.0,3.0,23.0,0,18,18,23,,,,,,,,,,,,,259.8673848999897,263.00842869997723,261.8150197999785,262.21737269998994,262.21720425997626,None,262.77900829998543,262.98775229998864,262.98775229998864,None,0.04907408356666565,4.637594499974512,262.98775229998864,None,264.52978489996167,None,19,""[0.6482100999564864, 0.9396504000178538, 0.6036447999649681, 0.8125623000087216, 0.5835758000030182, 0.6669443999999203, 0.6249039000249468, 1.0212335999822244, 0.8967841000412591, 1.082949000003282, 0.771348400041461, 0.6457194000249729, 0.7918199999839999, 0.8131974000134505, 1.0419344999827445, 0.939691599982325, 0.5627619999577291, 0.979637400014326, 1.1875552000128664]"",""[0.6482188999652863, 0.9396555000566877, 0.6036496000015177, 0.812567199987825, 0.5835811999859288, 0.6669492000364698, 0.6249088000040501, 1.0212388999643736, 0.8967896000249311, 1.082954499986954, 0.7713534000213258, 0.6457244000048377, 0.791824700019788, 0.8132025999948382, 1.0419393999618478, 0.9396969000226818, 0.5627676000003703, 0.9796426999964751, 1.1875603999942541]"",265.7170881999773,None,265.7170881999773,None,-0.062962964,-0.31851852,1,0,0,text_8,0.015267859969753772,None,266.3253399999812,268.52899039996555,C:\Users\Franziska\Desktop\S1_language prediction\data/S028_experiment_SCZ_Long_corrected_2024_May_06_1652_mic_2_recorded\recording_mic_2_trials_18.wav,0.015396060014609247,2.218980960024055,268.50899419997586,None,0.012962967157363892,1.4700664000120014,268.6249625000055,None,268.6249625000055,None,270.114061100001,None,19,""[0.6071542000281624, 0.8747826000326313, 0.667181900003925, 0.8965279000112787, 0.8335629000212066, 1.104909299989231, 0.8959583999821916, 1.0837264999863692, 1.251645800017286, 1.0439069999847561, 1.3147458999883384, 0.7715239999815822, 0.8755936999805272, 0.9341479000286199, 0.7600970999919809, 0.6879288000054657, 0.8753570999833755, 0.8121922999853268, 1.4134045000537299]"",""[0.6071605000179261, 0.874787800014019, 0.6671866000397131, 0.8965324999880977, 0.8335683000041172, 1.1049143999698572, 0.8959744999883696, 1.0837315000244416, 1.2516562000382692, 1.0439118000213057, 1.3147549999994226, 0.7715291000204161, 0.8755984999588691, 0.9341597000020556, 0.760103499982506, 0.6879335000412539, 0.8753628999693319, 0.8121975000249222, 1.4134092000313103]"",,,S028,3B,2024_May_06_1652,experiment_SCZ_Long_corrected,2021.2.3,48.00452394948917,"
"0.2828949036085618,1.0,Task,el_mm_163p.wav,el_mm_163tw_12.wav,None,171.0,Die Eingeborenen bauten sich aus Bambus eine,Kanone,8.0,0.0,44.0,0.0,3.0,0.068181818,0.292308973,Stimuli/el_mm_163p.wav,Stimuli/el_mm_163tw_12.wav,4.0,12.0,412.0,0,19,19,5,,,,,,,,,,,,,271.55479969998123,275.757560500002,274.4413397999597,274.8406688999967,274.84073625997405,None,275.528063500009,275.7368371000048,275.7368371000048,None,0.7731481492519379,5.761196500039659,275.7368371000048,None,277.3403583999607,None,20,""[0.6482100999564864, 0.9396504000178538, 0.6036447999649681, 0.8125623000087216, 0.5835758000030182, 0.6669443999999203, 0.6249039000249468, 1.0212335999822244, 0.8967841000412591, 1.082949000003282, 0.771348400041461, 0.6457194000249729, 0.7918199999839999, 0.8131974000134505, 1.0419344999827445, 0.939691599982325, 0.5627619999577291, 0.979637400014326, 1.1875552000128664, 0.9581658000242896]"",""[0.6482188999652863, 0.9396555000566877, 0.6036496000015177, 0.812567199987825, 0.5835811999859288, 0.6669492000364698, 0.6249088000040501, 1.0212388999643736, 0.8967896000249311, 1.082954499986954, 0.7713534000213258, 0.6457244000048377, 0.791824700019788, 0.8132025999948382, 1.0419393999618478, 0.9396969000226818, 0.5627676000003703, 0.9796426999964751, 1.1875603999942541, 0.958170700003393]"",278.2987008999917,None,278.2987008999917,None,0.032407407,-0.31666666,1,0,0,text_8,0.015021259954664856,None,279.0951861999929,281.298524599988,C:\Users\Franziska\Desktop\S1_language prediction\data/S028_experiment_SCZ_Long_corrected_2024_May_06_1652_mic_2_recorded\recording_mic_2_trials_19.wav,0.015495260013267398,2.218585160037037,281.27813769999193,None,0.6212962940335274,1.3427411000011489,281.3976909999619,None,281.3976909999619,None,282.7612836000044,None,20,""[0.6071542000281624, 0.8747826000326313, 0.667181900003925, 0.8965279000112787, 0.8335629000212066, 1.104909299989231, 0.8959583999821916, 1.0837264999863692, 1.251645800017286, 1.0439069999847561, 1.3147458999883384, 0.7715239999815822, 0.8755936999805272, 0.9341479000286199, 0.7600970999919809, 0.6879288000054657, 0.8753570999833755, 0.8121922999853268, 1.4134045000537299, 0.748048200039193]"",""[0.6071605000179261, 0.874787800014019, 0.6671866000397131, 0.8965324999880977, 0.8335683000041172, 1.1049143999698572, 0.8959744999883696, 1.0837315000244416, 1.2516562000382692, 1.0439118000213057, 1.3147549999994226, 0.7715291000204161, 0.8755984999588691, 0.9341597000020556, 0.760103499982506, 0.6879335000412539, 0.8753628999693319, 0.8121975000249222, 1.4134092000313103, 0.7480533000198193]"",,,S028,3B,2024_May_06_1652,experiment_SCZ_Long_corrected,2021.2.3,48.00452394948917,"
"0.2880848843725248,1.0,Task,el_107p.wav,el_107tw_1.wav,None,29.0,Nach dem schweren Treffer ging der Boxer zu,Boden,9.0,43.0,44.0,0.977272727,2.0,0.045454545,0.108471339,Stimuli/el_107p.wav,Stimuli/el_107tw_1.wav,3.0,1.0,31.0,0,20,20,7,,,,,,,,,,,,,283.5370953999809,287.33935019996716,286.15753749996657,286.5684637000086,286.56847595997385,None,287.101085399976,287.31837479997193,287.31837479997193,None,0.032407402992248535,5.172319900011644,287.31837479997193,None,288.7358591000084,None,21,""[0.6482100999564864, 0.9396504000178538, 0.6036447999649681, 0.8125623000087216, 0.5835758000030182, 0.6669443999999203, 0.6249039000249468, 1.0212335999822244, 0.8967841000412591, 1.082949000003282, 0.771348400041461, 0.6457194000249729, 0.7918199999839999, 0.8131974000134505, 1.0419344999827445, 0.939691599982325, 0.5627619999577291, 0.979637400014326, 1.1875552000128664, 0.9581658000242896, 0.7717912999796681]"",""[0.6482188999652863, 0.9396555000566877, 0.6036496000015177, 0.812567199987825, 0.5835811999859288, 0.6669492000364698, 0.6249088000040501, 1.0212388999643736, 0.8967896000249311, 1.082954499986954, 0.7713534000213258, 0.6457244000048377, 0.791824700019788, 0.8132025999948382, 1.0419393999618478, 0.9396969000226818, 0.5627676000003703, 0.9796426999964751, 1.1875603999942541, 0.958170700003393, 0.7717961000162177]"",289.5064233999583,None,289.5064233999583,None,-0.012037037,-0.30277777,1,0,0,text_8,0.015086359984707087,None,291.71464079996804,293.9222632999881,C:\Users\Franziska\Desktop\S1_language prediction\data/S028_experiment_SCZ_Long_corrected_2024_May_06_1652_mic_2_recorded\recording_mic_2_trials_20.wav,0.01663466007448733,2.2210039600613527,293.880912899971,None,0.034259259700775146,1.6701776999980211,294.0015339999809,None,294.0015339999809,None,295.6925768000074,None,21,""[0.6071542000281624, 0.8747826000326313, 0.667181900003925, 0.8965279000112787, 0.8335629000212066, 1.104909299989231, 0.8959583999821916, 1.0837264999863692, 1.251645800017286, 1.0439069999847561, 1.3147458999883384, 0.7715239999815822, 0.8755936999805272, 0.9341479000286199, 0.7600970999919809, 0.6879288000054657, 0.8753570999833755, 0.8121922999853268, 1.4134045000537299, 0.748048200039193, 0.6254932000301778]"",""[0.6071605000179261, 0.874787800014019, 0.6671866000397131, 0.8965324999880977, 0.8335683000041172, 1.1049143999698572, 0.8959744999883696, 1.0837315000244416, 1.2516562000382692, 1.0439118000213057, 1.3147549999994226, 0.7715291000204161, 0.8755984999588691, 0.9341597000020556, 0.760103499982506, 0.6879335000412539, 0.8753628999693319, 0.8121975000249222, 1.4134092000313103, 0.7480533000198193, 0.6255165000329725]"",,,S028,3B,2024_May_06_1652,experiment_SCZ_Long_corrected,2021.2.3,48.00452394948917,"
"0.3432075103835051,1.0,Task,el_039p.wav,el_039tw_6.wav,None,6.0,Der Hase hockte im hohen,Gras,6.0,45.0,47.0,0.957446809,3.0,0.063829787,0.20547075,Stimuli/el_039p.wav,Stimuli/el_039tw_6.wav,3.0,6.0,36.0,0,21,21,15,,,,,,,,,,,,,296.3422605000087,299.48406899999827,298.1149518999737,298.52574499999173,298.52579466000896,None,299.2472437999677,299.4627317999839,299.4627317999839,None,0.7527777850627899,4.347518800001126,299.4627317999839,None,300.7125272999983,None,22,""[0.6482100999564864, 0.9396504000178538, 0.6036447999649681, 0.8125623000087216, 0.5835758000030182, 0.6669443999999203, 0.6249039000249468, 1.0212335999822244, 0.8967841000412591, 1.082949000003282, 0.771348400041461, 0.6457194000249729, 0.7918199999839999, 0.8131974000134505, 1.0419344999827445, 0.939691599982325, 0.5627619999577291, 0.979637400014326, 1.1875552000128664, 0.9581658000242896, 0.7717912999796681, 1.2912852999870665]"",""[0.6482188999652863, 0.9396555000566877, 0.6036496000015177, 0.812567199987825, 0.5835811999859288, 0.6669492000364698, 0.6249088000040501, 1.0212388999643736, 0.8967896000249311, 1.082954499986954, 0.7713534000213258, 0.6457244000048377, 0.791824700019788, 0.8132025999948382, 1.0419393999618478, 0.9396969000226818, 0.5627676000003703, 0.9796426999964751, 1.1875603999942541, 0.958170700003393, 0.7717961000162177, 1.291290500026662]"",302.00472450000234,None,302.00472450000234,None,-0.046296295,-0.3175926,1,0,0,text_8,0.015543159970548004,None,303.0675537000061,305.2754935999983,C:\Users\Franziska\Desktop\S1_language prediction\data/S028_experiment_SCZ_Long_corrected_2024_May_06_1652_mic_2_recorded\recording_mic_2_trials_21.wav,0.016494159994181246,2.220570159959607,305.23360769997817,None,0.7287037074565887,1.5238362000091001,305.3549175999942,None,305.3549175999942,None,306.90001509996364,None,22,""[0.6071542000281624, 0.8747826000326313, 0.667181900003925, 0.8965279000112787, 0.8335629000212066, 1.104909299989231, 0.8959583999821916, 1.0837264999863692, 1.251645800017286, 1.0439069999847561, 1.3147458999883384, 0.7715239999815822, 0.8755936999805272, 0.9341479000286199, 0.7600970999919809, 0.6879288000054657, 0.8753570999833755, 0.8121922999853268, 1.4134045000537299, 0.748048200039193, 0.6254932000301778, 1.209428999980446]"",""[0.6071605000179261, 0.874787800014019, 0.6671866000397131, 0.8965324999880977, 0.8335683000041172, 1.1049143999698572, 0.8959744999883696, 1.0837315000244416, 1.2516562000382692, 1.0439118000213057, 1.3147549999994226, 0.7715291000204161, 0.8755984999588691, 0.9341597000020556, 0.760103499982506, 0.6879335000412539, 0.8753628999693319, 0.8121975000249222, 1.4134092000313103, 0.7480533000198193, 0.6255165000329725, 1.2094340999610722]"",,,S028,3B,2024_May_06_1652,experiment_SCZ_Long_corrected,2021.2.3,48.00452394948917,"
"0.5267205066618235,1.0,Task,em_146p.wav,em_146tw_12.wav,None,76.0,Er stemmte die Arme in die,Hüften,7.0,28.0,44.0,0.636363636,4.0,0.090909091,1.013331411,Stimuli/em_146p.wav,Stimuli/em_146tw_12.wav,2.0,12.0,212.0,0,22,22,49,,,,,,,,,,,,,308.13029419997474,311.06599989999086,309.756192300003,310.16987350001,310.1699897600105,None,310.8384281999897,311.0452121999697,311.0452121999697,None,0.7120370417833328,4.514022500021383,311.0452121999697,None,312.6695725999889,None,23,""[0.6482100999564864, 0.9396504000178538, 0.6036447999649681, 0.8125623000087216, 0.5835758000030182, 0.6669443999999203, 0.6249039000249468, 1.0212335999822244, 0.8967841000412591, 1.082949000003282, 0.771348400041461, 0.6457194000249729, 0.7918199999839999, 0.8131974000134505, 1.0419344999827445, 0.939691599982325, 0.5627619999577291, 0.979637400014326, 1.1875552000128664, 0.9581658000242896, 0.7717912999796681, 1.2912852999870665, 1.3974052999983542]"",""[0.6482188999652863, 0.9396555000566877, 0.6036496000015177, 0.812567199987825, 0.5835811999859288, 0.6669492000364698, 0.6249088000040501, 1.0212388999643736, 0.8967896000249311, 1.082954499986954, 0.7713534000213258, 0.6457244000048377, 0.791824700019788, 0.8132025999948382, 1.0419393999618478, 0.9396969000226818, 0.5627676000003703, 0.9796426999964751, 1.1875603999942541, 0.958170700003393, 0.7717961000162177, 1.291290500026662, 1.397410400037188]"",314.0658915999811,None,314.0658915999811,None,0.0009259259,-0.31851852,1,0,0,text_8,0.014058259956073016,None,314.9617484000046,317.1695472999709,C:\Users\Franziska\Desktop\S1_language prediction\data/S028_experiment_SCZ_Long_corrected_2024_May_06_1652_mic_2_recorded\recording_mic_2_trials_22.wav,0.016538660041987896,2.2206387600745074,317.1282729000086,None,0.5731481462717056,2.0904069999814965,317.24548659997527,None,317.24548659997527,None,319.3572273000027,None,23,""[0.6071542000281624, 0.8747826000326313, 0.667181900003925, 0.8965279000112787, 0.8335629000212066, 1.104909299989231, 0.8959583999821916, 1.0837264999863692, 1.251645800017286, 1.0439069999847561, 1.3147458999883384, 0.7715239999815822, 0.8755936999805272, 0.9341479000286199, 0.7600970999919809, 0.6879288000054657, 0.8753570999833755, 0.8121922999853268, 1.4134045000537299, 0.748048200039193, 0.6254932000301778, 1.209428999980446, 0.9817933000158519]"",""[0.6071605000179261, 0.874787800014019, 0.6671866000397131, 0.8965324999880977, 0.8335683000041172, 1.1049143999698572, 0.8959744999883696, 1.0837315000244416, 1.2516562000382692, 1.0439118000213057, 1.3147549999994226, 0.7715291000204161, 0.8755984999588691, 0.9341597000020556, 0.760103499982506, 0.6879335000412539, 0.8753628999693319, 0.8121975000249222, 1.4134092000313103, 0.7480533000198193, 0.6255165000329725, 1.2094340999610722, 0.981798599998001]"",,,S028,3B,2024_May_06_1652,experiment_SCZ_Long_corrected,2021.2.3,48.00452394948917,"
"0.4850503526371315,1.0,Task,em_162p.wav,em_162tw_3.wav,None,117.0,Peter träufelte sich ein paar Tropfen in die,Augen,9.0,22.0,44.0,0.5,8.0,0.181818182,1.403433144,Stimuli/em_162p.wav,Stimuli/em_162tw_3.wav,2.0,3.0,23.0,0,23,23,40,,,,,,,,,,,,,320.36731959995814,324.1062738999608,322.77769879996777,323.1892291000113,323.1892955599818,None,323.87737209995976,324.0859319999581,324.0859319999581,None,0.02037036418914795,6.151097699999809,324.0859319999581,None,326.54309799999464,None,24,""[0.6482100999564864, 0.9396504000178538, 0.6036447999649681, 0.8125623000087216, 0.5835758000030182, 0.6669443999999203, 0.6249039000249468, 1.0212335999822244, 0.8967841000412591, 1.082949000003282, 0.771348400041461, 0.6457194000249729, 0.7918199999839999, 0.8131974000134505, 1.0419344999827445, 0.939691599982325, 0.5627619999577291, 0.979637400014326, 1.1875552000128664, 0.9581658000242896, 0.7717912999796681, 1.2912852999870665, 1.3974052999983542, 1.792101899976842]"",""[0.6482188999652863, 0.9396555000566877, 0.6036496000015177, 0.812567199987825, 0.5835811999859288, 0.6669492000364698, 0.6249088000040501, 1.0212388999643736, 0.8967896000249311, 1.082954499986954, 0.7713534000213258, 0.6457244000048377, 0.791824700019788, 0.8132025999948382, 1.0419393999618478, 0.9396969000226818, 0.5627676000003703, 0.9796426999964751, 1.1875603999942541, 0.958170700003393, 0.7717961000162177, 1.291290500026662, 1.397410400037188, 1.792106899956707]"",328.3357139999862,None,328.3357139999862,None,0.025,-0.3148148,1,0,0,text_8,0.014973559998907149,None,329.983470999985,332.18898779997835,C:\Users\Franziska\Desktop\S1_language prediction\data/S028_experiment_SCZ_Long_corrected_2024_May_06_1652_mic_2_recorded\recording_mic_2_trials_23.wav,0.015661860001273453,2.219095560023561,332.1681397999637,None,0.013888895511627197,2.86087699997006,332.28534499998204,None,332.28534499998204,None,335.16745269997045,None,24,""[0.6071542000281624, 0.8747826000326313, 0.667181900003925, 0.8965279000112787, 0.8335629000212066, 1.104909299989231, 0.8959583999821916, 1.0837264999863692, 1.251645800017286, 1.0439069999847561, 1.3147458999883384, 0.7715239999815822, 0.8755936999805272, 0.9341479000286199, 0.7600970999919809, 0.6879288000054657, 0.8753570999833755, 0.8121922999853268, 1.4134045000537299, 0.748048200039193, 0.6254932000301778, 1.209428999980446, 0.9817933000158519, 1.0624916999950074]"",""[0.6071605000179261, 0.874787800014019, 0.6671866000397131, 0.8965324999880977, 0.8335683000041172, 1.1049143999698572, 0.8959744999883696, 1.0837315000244416, 1.2516562000382692, 1.0439118000213057, 1.3147549999994226, 0.7715291000204161, 0.8755984999588691, 0.9341597000020556, 0.760103499982506, 0.6879335000412539, 0.8753628999693319, 0.8121975000249222, 1.4134092000313103, 0.7480533000198193, 0.6255165000329725, 1.2094340999610722, 0.981798599998001, 1.0624967999756336]"",,,S028,3B,2024_May_06_1652,experiment_SCZ_Long_corrected,2021.2.3,48.00452394948917,"
"0.3674185763649424,1.0,Task,eh_367p.wav,eh_367tw_3.wav,None,152.0,Das Windrad dreht sich gut auf dem,Acker,8.0,2.0,29.0,0.068965517,11.0,0.379310345,2.03419603,Stimuli/eh_367p.wav,Stimuli/eh_367tw_3.wav,1.0,3.0,13.0,0,24,24,19,,,,,,,,,,,,,336.2534641000093,339.4376852999558,338.259641099954,338.6666339999647,338.66686415995935,None,339.2020765999914,339.4170047999942,339.4170047999942,None,0.025000005960464478,5.825628400023561,339.4170047999942,None,342.10451669996837,None,25,""[0.6482100999564864, 0.9396504000178538, 0.6036447999649681, 0.8125623000087216, 0.5835758000030182, 0.6669443999999203, 0.6249039000249468, 1.0212335999822244, 0.8967841000412591, 1.082949000003282, 0.771348400041461, 0.6457194000249729, 0.7918199999839999, 0.8131974000134505, 1.0419344999827445, 0.939691599982325, 0.5627619999577291, 0.979637400014326, 1.1875552000128664, 0.9581658000242896, 0.7717912999796681, 1.2912852999870665, 1.3974052999983542, 1.792101899976842, 0.9795490000396967]"",""[0.6482188999652863, 0.9396555000566877, 0.6036496000015177, 0.812567199987825, 0.5835811999859288, 0.6669492000364698, 0.6249088000040501, 1.0212388999643736, 0.8967896000249311, 1.082954499986954, 0.7713534000213258, 0.6457244000048377, 0.791824700019788, 0.8132025999948382, 1.0419393999618478, 0.9396969000226818, 0.5627676000003703, 0.9796426999964751, 1.1875603999942541, 0.958170700003393, 0.7717961000162177, 1.291290500026662, 1.397410400037188, 1.792106899956707, 0.9795544000226073]"",343.08344139996916,None,343.08344139996916,None,0.058333334,-0.32222223,1,0,0,text_8,0.015586160065140575,None,346.2910936999833,348.49931739998283,C:\Users\Franziska\Desktop\S1_language prediction\data/S028_experiment_SCZ_Long_corrected_2024_May_06_1652_mic_2_recorded\recording_mic_2_trials_24.wav,0.0169762599398382,2.221694359963294,348.45786729996325,None,0.03148147463798523,4.0552269000327215,348.56920319999335,None,348.56920319999335,None,352.64502479997464,None,25,""[0.6071542000281624, 0.8747826000326313, 0.667181900003925, 0.8965279000112787, 0.8335629000212066, 1.104909299989231, 0.8959583999821916, 1.0837264999863692, 1.251645800017286, 1.0439069999847561, 1.3147458999883384, 0.7715239999815822, 0.8755936999805272, 0.9341479000286199, 0.7600970999919809, 0.6879288000054657, 0.8753570999833755, 0.8121922999853268, 1.4134045000537299, 0.748048200039193, 0.6254932000301778, 1.209428999980446, 0.9817933000158519, 1.0624916999950074, 0.7080941000021994]"",""[0.6071605000179261, 0.874787800014019, 0.6671866000397131, 0.8965324999880977, 0.8335683000041172, 1.1049143999698572, 0.8959744999883696, 1.0837315000244416, 1.2516562000382692, 1.0439118000213057, 1.3147549999994226, 0.7715291000204161, 0.8755984999588691, 0.9341597000020556, 0.760103499982506, 0.6879335000412539, 0.8753628999693319, 0.8121975000249222, 1.4134092000313103, 0.7480533000198193, 0.6255165000329725, 1.2094340999610722, 0.981798599998001, 1.0624967999756336, 0.7081000999896787]"",,,S028,3B,2024_May_06_1652,experiment_SCZ_Long_corrected,2021.2.3,48.00452394948917,"
"0.3674026683686477,1.0,Task,eh_358p.wav,eh_358tw_3.wav,None,160.0,Auf dem Grund des Meeres findet man keine,Sterne,9.0,1.0,29.0,0.034482759,23.0,0.793103448,2.90098047,Stimuli/eh_358p.wav,Stimuli/eh_358tw_3.wav,1.0,3.0,13.0,0,25,25,18,,,,,,,,,,,,,353.37871669995366,357.3522411999875,355.9066943000071,356.3110441999743,356.3104061599937,None,357.131829299964,357.3311082999571,357.3311082999571,None,0.03796297311782837,5.739447599975392,357.3311082999571,None,359.144234300009,None,26,""[0.6482100999564864, 0.9396504000178538, 0.6036447999649681, 0.8125623000087216, 0.5835758000030182, 0.6669443999999203, 0.6249039000249468, 1.0212335999822244, 0.8967841000412591, 1.082949000003282, 0.771348400041461, 0.6457194000249729, 0.7918199999839999, 0.8131974000134505, 1.0419344999827445, 0.939691599982325, 0.5627619999577291, 0.979637400014326, 1.1875552000128664, 0.9581658000242896, 0.7717912999796681, 1.2912852999870665, 1.3974052999983542, 1.792101899976842, 0.9795490000396967, 0.8547026999876834]"",""[0.6482188999652863, 0.9396555000566877, 0.6036496000015177, 0.812567199987825, 0.5835811999859288, 0.6669492000364698, 0.6249088000040501, 1.0212388999643736, 0.8967896000249311, 1.082954499986954, 0.7713534000213258, 0.6457244000048377, 0.791824700019788, 0.8132025999948382, 1.0419393999618478, 0.9396969000226818, 0.5627676000003703, 0.9796426999964751, 1.1875603999942541, 0.958170700003393, 0.7717961000162177, 1.291290500026662, 1.397410400037188, 1.792106899956707, 0.9795544000226073, 0.8547086999751627]"",359.99785729998257,None,359.99785729998257,None,-0.033333335,-0.30462962,1,0,0,text_8,0.015116259979549795,None,360.544875099964,362.747750599985,C:\Users\Franziska\Desktop\S1_language prediction\data/S028_experiment_SCZ_Long_corrected_2024_May_06_1652_mic_2_recorded\recording_mic_2_trials_25.wav,0.015427260077558458,2.2190771600580774,362.7275841999799,None,0.024074077606201172,1.5538212000392377,362.84100809996016,None,362.84100809996016,None,364.414037199982,None,26,""[0.6071542000281624, 0.8747826000326313, 0.667181900003925, 0.8965279000112787, 0.8335629000212066, 1.104909299989231, 0.8959583999821916, 1.0837264999863692, 1.251645800017286, 1.0439069999847561, 1.3147458999883384, 0.7715239999815822, 0.8755936999805272, 0.9341479000286199, 0.7600970999919809, 0.6879288000054657, 0.8753570999833755, 0.8121922999853268, 1.4134045000537299, 0.748048200039193, 0.6254932000301778, 1.209428999980446, 0.9817933000158519, 1.0624916999950074, 0.7080941000021994, 0.920810799987521]"",""[0.6071605000179261, 0.874787800014019, 0.6671866000397131, 0.8965324999880977, 0.8335683000041172, 1.1049143999698572, 0.8959744999883696, 1.0837315000244416, 1.2516562000382692, 1.0439118000213057, 1.3147549999994226, 0.7715291000204161, 0.8755984999588691, 0.9341597000020556, 0.760103499982506, 0.6879335000412539, 0.8753628999693319, 0.8121975000249222, 1.4134092000313103, 0.7480533000198193, 0.6255165000329725, 1.2094340999610722, 0.981798599998001, 1.0624967999756336, 0.7081000999896787, 0.9208251999807544]"",,,S028,3B,2024_May_06_1652,experiment_SCZ_Long_corrected,2021.2.3,48.00452394948917,"
"0.4173134708480748,1.0,Task,el_168p.wav,el_168tw_12.wav,None,12.0,Der kleine Hund kaute an seinem,Knochen,7.0,37.0,44.0,0.840909091,5.0,0.113636364,0.545244441,Stimuli/el_168p.wav,Stimuli/el_168tw_12.wav,3.0,12.0,312.0,0,26,26,30,,,,,,,,,,,,,365.3572293999605,368.8299773999606,367.6069269999862,368.01760769996326,368.01806005996184,None,368.60461579996627,368.808915600006,368.808915600006,None,0.8722222149372101,5.718512299994472,368.808915600006,None,371.10058849997586,None,27,""[0.6482100999564864, 0.9396504000178538, 0.6036447999649681, 0.8125623000087216, 0.5835758000030182, 0.6669443999999203, 0.6249039000249468, 1.0212335999822244, 0.8967841000412591, 1.082949000003282, 0.771348400041461, 0.6457194000249729, 0.7918199999839999, 0.8131974000134505, 1.0419344999827445, 0.939691599982325, 0.5627619999577291, 0.979637400014326, 1.1875552000128664, 0.9581658000242896, 0.7717912999796681, 1.2912852999870665, 1.3974052999983542, 1.792101899976842, 0.9795490000396967, 0.8547026999876834, 0.7918110000318848]"",""[0.6482188999652863, 0.9396555000566877, 0.6036496000015177, 0.812567199987825, 0.5835811999859288, 0.6669492000364698, 0.6249088000040501, 1.0212388999643736, 0.8967896000249311, 1.082954499986954, 0.7713534000213258, 0.6457244000048377, 0.791824700019788, 0.8132025999948382, 1.0419393999618478, 0.9396969000226818, 0.5627676000003703, 0.9796426999964751, 1.1875603999942541, 0.958170700003393, 0.7717961000162177, 1.291290500026662, 1.397410400037188, 1.792106899956707, 0.9795544000226073, 0.8547086999751627, 0.7918162000132725]"",371.89251639996655,None,371.89251639996655,None,0.042592593,-0.32407406,1,0,0,text_8,0.015029660076834261,None,372.76741829997627,374.9757132999948,C:\Users\Franziska\Desktop\S1_language prediction\data/S028_experiment_SCZ_Long_corrected_2024_May_06_1652_mic_2_recorded\recording_mic_2_trials_26.wav,0.017030360060743988,2.22204576007789,374.9346459999797,None,0.7722222208976746,2.2807420000317506,375.04731489997357,None,375.04731489997357,None,377.3504934000084,None,27,""[0.6071542000281624, 0.8747826000326313, 0.667181900003925, 0.8965279000112787, 0.8335629000212066, 1.104909299989231, 0.8959583999821916, 1.0837264999863692, 1.251645800017286, 1.0439069999847561, 1.3147458999883384, 0.7715239999815822, 0.8755936999805272, 0.9341479000286199, 0.7600970999919809, 0.6879288000054657, 0.8753570999833755, 0.8121922999853268, 1.4134045000537299, 0.748048200039193, 0.6254932000301778, 1.209428999980446, 0.9817933000158519, 1.0624916999950074, 0.7080941000021994, 0.920810799987521, 0.6255644999910146]"",""[0.6071605000179261, 0.874787800014019, 0.6671866000397131, 0.8965324999880977, 0.8335683000041172, 1.1049143999698572, 0.8959744999883696, 1.0837315000244416, 1.2516562000382692, 1.0439118000213057, 1.3147549999994226, 0.7715291000204161, 0.8755984999588691, 0.9341597000020556, 0.760103499982506, 0.6879335000412539, 0.8753628999693319, 0.8121975000249222, 1.4134092000313103, 0.7480533000198193, 0.6255165000329725, 1.2094340999610722, 0.981798599998001, 1.0624967999756336, 0.7081000999896787, 0.9208251999807544, 0.6255690999678336]"",,,S028,3B,2024_May_06_1652,experiment_SCZ_Long_corrected,2021.2.3,48.00452394948917,"
"0.4894058148703575,1.0,Task,em_137p.wav,em_137tw_12.wav,None,64.0,Der Kapitän musterte seine,Mannschaft,5.0,27.0,44.0,0.613636364,10.0,0.227272727,1.391386688,Stimuli/em_137p.wav,Stimuli/em_137tw_12.wav,2.0,12.0,212.0,0,27,27,41,,,,,,,,,,,,,377.9973599999794,381.3076791999629,379.8332969999756,380.2457791999914,380.2458947599865,None,381.0781505999621,381.2871264999849,381.2871264999849,None,0.8305555582046509,4.76542429998517,381.2871264999849,None,382.78737649996765,None,28,""[0.6482100999564864, 0.9396504000178538, 0.6036447999649681, 0.8125623000087216, 0.5835758000030182, 0.6669443999999203, 0.6249039000249468, 1.0212335999822244, 0.8967841000412591, 1.082949000003282, 0.771348400041461, 0.6457194000249729, 0.7918199999839999, 0.8131974000134505, 1.0419344999827445, 0.939691599982325, 0.5627619999577291, 0.979637400014326, 1.1875552000128664, 0.9581658000242896, 0.7717912999796681, 1.2912852999870665, 1.3974052999983542, 1.792101899976842, 0.9795490000396967, 0.8547026999876834, 0.7918110000318848, 2.2508287000237033]"",""[0.6482188999652863, 0.9396555000566877, 0.6036496000015177, 0.812567199987825, 0.5835811999859288, 0.6669492000364698, 0.6249088000040501, 1.0212388999643736, 0.8967896000249311, 1.082954499986954, 0.7713534000213258, 0.6457244000048377, 0.791824700019788, 0.8132025999948382, 1.0419393999618478, 0.9396969000226818, 0.5627676000003703, 0.9796426999964751, 1.1875603999942541, 0.958170700003393, 0.7717961000162177, 1.291290500026662, 1.397410400037188, 1.792106899956707, 0.9795544000226073, 0.8547086999751627, 0.7918162000132725, 2.2508338000043295]"",385.0373134999536,None,385.0373134999536,None,-0.019444445,-0.31388888,1,0,0,text_8,0.01519416004884988,None,385.8717752000084,388.0781049999641,C:\Users\Franziska\Desktop\S1_language prediction\data/S028_experiment_SCZ_Long_corrected_2024_May_06_1652_mic_2_recorded\recording_mic_2_trials_27.wav,0.015959359996486455,2.219552160007879,388.0576589999837,None,0.7638888955116272,1.6515649000066333,388.17630629998166,None,388.17630629998166,None,389.8486163999769,None,28,""[0.6071542000281624, 0.8747826000326313, 0.667181900003925, 0.8965279000112787, 0.8335629000212066, 1.104909299989231, 0.8959583999821916, 1.0837264999863692, 1.251645800017286, 1.0439069999847561, 1.3147458999883384, 0.7715239999815822, 0.8755936999805272, 0.9341479000286199, 0.7600970999919809, 0.6879288000054657, 0.8753570999833755, 0.8121922999853268, 1.4134045000537299, 0.748048200039193, 0.6254932000301778, 1.209428999980446, 0.9817933000158519, 1.0624916999950074, 0.7080941000021994, 0.920810799987521, 0.6255644999910146, 0.6258310000412166]"",""[0.6071605000179261, 0.874787800014019, 0.6671866000397131, 0.8965324999880977, 0.8335683000041172, 1.1049143999698572, 0.8959744999883696, 1.0837315000244416, 1.2516562000382692, 1.0439118000213057, 1.3147549999994226, 0.7715291000204161, 0.8755984999588691, 0.9341597000020556, 0.760103499982506, 0.6879335000412539, 0.8753628999693319, 0.8121975000249222, 1.4134092000313103, 0.7480533000198193, 0.6255165000329725, 1.2094340999610722, 0.981798599998001, 1.0624967999756336, 0.7081000999896787, 0.9208251999807544, 0.6255690999678336, 0.6258364000241272]"",,,S028,3B,2024_May_06_1652,experiment_SCZ_Long_corrected,2021.2.3,48.00452394948917,"
"0.2928373441972069,1.0,Task,em_327p.wav,em_327tw_1.wav,None,95.0,Kevin und Marie spielen oft im,Garten,7.0,37.0,83.0,0.445783133,17.0,0.204819277,1.911573224,Stimuli/em_327p.wav,Stimuli/em_327tw_1.wav,2.0,1.0,21.0,0,28,28,8,,,,,,,,,,,,,390.50180189998355,393.8065760000027,392.527171899972,392.9313231999986,392.93159165999384,None,393.58120969997253,393.7857994000078,393.7857994000078,None,0.07962962985038757,5.362993200018536,393.7857994000078,None,395.8892351000104,None,29,""[0.6482100999564864, 0.9396504000178538, 0.6036447999649681, 0.8125623000087216, 0.5835758000030182, 0.6669443999999203, 0.6249039000249468, 1.0212335999822244, 0.8967841000412591, 1.082949000003282, 0.771348400041461, 0.6457194000249729, 0.7918199999839999, 0.8131974000134505, 1.0419344999827445, 0.939691599982325, 0.5627619999577291, 0.979637400014326, 1.1875552000128664, 0.9581658000242896, 0.7717912999796681, 1.2912852999870665, 1.3974052999983542, 1.792101899976842, 0.9795490000396967, 0.8547026999876834, 0.7918110000318848, 2.2508287000237033, 0.7304697000072338]"",""[0.6482188999652863, 0.9396555000566877, 0.6036496000015177, 0.812567199987825, 0.5835811999859288, 0.6669492000364698, 0.6249088000040501, 1.0212388999643736, 0.8967896000249311, 1.082954499986954, 0.7713534000213258, 0.6457244000048377, 0.791824700019788, 0.8132025999948382, 1.0419393999618478, 0.9396969000226818, 0.5627676000003703, 0.9796426999964751, 1.1875603999942541, 0.958170700003393, 0.7717961000162177, 1.291290500026662, 1.397410400037188, 1.792106899956707, 0.9795544000226073, 0.8547086999751627, 0.7918162000132725, 2.2508338000043295, 0.7304748999886215]"",396.61883880000096,None,396.61883880000096,None,-0.0046296297,-0.3074074,1,0,0,text_8,0.013779460045043379,None,397.5790205000085,399.7851098999963,C:\Users\Franziska\Desktop\S1_language prediction\data/S028_experiment_SCZ_Long_corrected_2024_May_06_1652_mic_2_recorded\recording_mic_2_trials_28.wav,0.015999760013073683,2.2199370600283146,399.7649075000081,None,0.025000005960464478,2.9094110999722034,399.8733283999609,None,399.8733283999609,None,402.8058267000015,None,29,""[0.6071542000281624, 0.8747826000326313, 0.667181900003925, 0.8965279000112787, 0.8335629000212066, 1.104909299989231, 0.8959583999821916, 1.0837264999863692, 1.251645800017286, 1.0439069999847561, 1.3147458999883384, 0.7715239999815822, 0.8755936999805272, 0.9341479000286199, 0.7600970999919809, 0.6879288000054657, 0.8753570999833755, 0.8121922999853268, 1.4134045000537299, 0.748048200039193, 0.6254932000301778, 1.209428999980446, 0.9817933000158519, 1.0624916999950074, 0.7080941000021994, 0.920810799987521, 0.6255644999910146, 0.6258310000412166, 0.9791442999849096]"",""[0.6071605000179261, 0.874787800014019, 0.6671866000397131, 0.8965324999880977, 0.8335683000041172, 1.1049143999698572, 0.8959744999883696, 1.0837315000244416, 1.2516562000382692, 1.0439118000213057, 1.3147549999994226, 0.7715291000204161, 0.8755984999588691, 0.9341597000020556, 0.760103499982506, 0.6879335000412539, 0.8753628999693319, 0.8121975000249222, 1.4134092000313103, 0.7480533000198193, 0.6255165000329725, 1.2094340999610722, 0.981798599998001, 1.0624967999756336, 0.7081000999896787, 0.9208251999807544, 0.6255690999678336, 0.6258364000241272, 0.979149500024505]"",,,S028,3B,2024_May_06_1652,experiment_SCZ_Long_corrected,2021.2.3,48.00452394948917,"
"0.3689485907982388,1.0,Task,el_029p.wav,el_029tw_3.wav,None,40.0,Der Kapitän verließ als Letzter das sinkende,Schiff,8.0,46.0,47.0,0.978723404,2.0,0.042553191,0.10296666,Stimuli/el_029p.wav,Stimuli/el_029tw_3.wav,3.0,3.0,33.0,0,29,29,20,,,,,,,,,,,,,403.81085869995877,407.99216409999644,406.74002569995355,407.15875509998295,407.15879836000965,None,407.76072249998106,407.9713657000102,407.9713657000102,None,0.6046296283602715,5.6558918000082485,407.9713657000102,None,409.4929406999727,None,30,""[0.6482100999564864, 0.9396504000178538, 0.6036447999649681, 0.8125623000087216, 0.5835758000030182, 0.6669443999999203, 0.6249039000249468, 1.0212335999822244, 0.8967841000412591, 1.082949000003282, 0.771348400041461, 0.6457194000249729, 0.7918199999839999, 0.8131974000134505, 1.0419344999827445, 0.939691599982325, 0.5627619999577291, 0.979637400014326, 1.1875552000128664, 0.9581658000242896, 0.7717912999796681, 1.2912852999870665, 1.3974052999983542, 1.792101899976842, 0.9795490000396967, 0.8547026999876834, 0.7918110000318848, 2.2508287000237033, 0.7304697000072338, 0.7923215999617241]"",""[0.6482188999652863, 0.9396555000566877, 0.6036496000015177, 0.812567199987825, 0.5835811999859288, 0.6669492000364698, 0.6249088000040501, 1.0212388999643736, 0.8967896000249311, 1.082954499986954, 0.7713534000213258, 0.6457244000048377, 0.791824700019788, 0.8132025999948382, 1.0419393999618478, 0.9396969000226818, 0.5627676000003703, 0.9796426999964751, 1.1875603999942541, 0.958170700003393, 0.7717961000162177, 1.291290500026662, 1.397410400037188, 1.792106899956707, 0.9795544000226073, 0.8547086999751627, 0.7918162000132725, 2.2508338000043295, 0.7304748999886215, 0.792326900002081]"",410.28439649997745,None,410.28439649997745,None,-0.017592592,-0.31574073,1,0,0,text_8,0.014982760010752827,None,411.5564374999958,413.76371679996373,C:\Users\Franziska\Desktop\S1_language prediction\data/S028_experiment_SCZ_Long_corrected_2024_May_06_1652_mic_2_recorded\recording_mic_2_trials_29.wav,0.016807360050734133,2.221199060033541,413.7215377999819,None,0.4907407406717539,1.329843899991829,413.8299984000041,None,413.8299984000041,None,415.1788600999862,None,30,""[0.6071542000281624, 0.8747826000326313, 0.667181900003925, 0.8965279000112787, 0.8335629000212066, 1.104909299989231, 0.8959583999821916, 1.0837264999863692, 1.251645800017286, 1.0439069999847561, 1.3147458999883384, 0.7715239999815822, 0.8755936999805272, 0.9341479000286199, 0.7600970999919809, 0.6879288000054657, 0.8753570999833755, 0.8121922999853268, 1.4134045000537299, 0.748048200039193, 0.6254932000301778, 1.209428999980446, 0.9817933000158519, 1.0624916999950074, 0.7080941000021994, 0.920810799987521, 0.6255644999910146, 0.6258310000412166, 0.9791442999849096, 0.6448974999948405]"",""[0.6071605000179261, 0.874787800014019, 0.6671866000397131, 0.8965324999880977, 0.8335683000041172, 1.1049143999698572, 0.8959744999883696, 1.0837315000244416, 1.2516562000382692, 1.0439118000213057, 1.3147549999994226, 0.7715291000204161, 0.8755984999588691, 0.9341597000020556, 0.760103499982506, 0.6879335000412539, 0.8753628999693319, 0.8121975000249222, 1.4134092000313103, 0.7480533000198193, 0.6255165000329725, 1.2094340999610722, 0.981798599998001, 1.0624967999756336, 0.7081000999896787, 0.9208251999807544, 0.6255690999678336, 0.6258364000241272, 0.979149500024505, 0.6449026999762282]"",,,S028,3B,2024_May_06_1652,experiment_SCZ_Long_corrected,2021.2.3,48.00452394948917,"
"0.4231569405738217,1.0,Task,em_302p.wav,em_302tw_3.wav,None,120.0,Ein kleines Mädchen kletterte über die,Mauer,7.0,12.0,21.0,0.571428571,9.0,0.428571429,1.558561764,Stimuli/em_302p.wav,Stimuli/em_302tw_3.wav,2.0,3.0,23.0,0,30,30,31,,,,,,,,,,,,,415.85156290000305,419.3661215999746,418.1677811999689,418.5744495000108,418.5747830599779,None,419.1460740999901,419.3453693999909,419.3453693999909,None,0.5037037036381662,5.760160400008317,419.3453693999909,None,421.63684250001097,None,31,""[0.6482100999564864, 0.9396504000178538, 0.6036447999649681, 0.8125623000087216, 0.5835758000030182, 0.6669443999999203, 0.6249039000249468, 1.0212335999822244, 0.8967841000412591, 1.082949000003282, 0.771348400041461, 0.6457194000249729, 0.7918199999839999, 0.8131974000134505, 1.0419344999827445, 0.939691599982325, 0.5627619999577291, 0.979637400014326, 1.1875552000128664, 0.9581658000242896, 0.7717912999796681, 1.2912852999870665, 1.3974052999983542, 1.792101899976842, 0.9795490000396967, 0.8547026999876834, 0.7918110000318848, 2.2508287000237033, 0.7304697000072338, 0.7923215999617241, 1.063553799991496]"",""[0.6482188999652863, 0.9396555000566877, 0.6036496000015177, 0.812567199987825, 0.5835811999859288, 0.6669492000364698, 0.6249088000040501, 1.0212388999643736, 0.8967896000249311, 1.082954499986954, 0.7713534000213258, 0.6457244000048377, 0.791824700019788, 0.8132025999948382, 1.0419393999618478, 0.9396969000226818, 0.5627676000003703, 0.9796426999964751, 1.1875603999942541, 0.958170700003393, 0.7717961000162177, 1.291290500026662, 1.397410400037188, 1.792106899956707, 0.9795544000226073, 0.8547086999751627, 0.7918162000132725, 2.2508338000043295, 0.7304748999886215, 0.792326900002081, 1.063559099973645]"",422.6990557999816,None,422.6990557999816,None,-0.015740741,-0.2935185,1,0,0,text_8,0.01447256002575159,None,423.28442909999285,425.49031209998066,C:\Users\Franziska\Desktop\S1_language prediction\data/S028_experiment_SCZ_Long_corrected_2024_May_06_1652_mic_2_recorded\recording_mic_2_trials_30.wav,0.01603406004142016,2.219773860066198,425.4702207999653,None,0.4444444440305233,1.8103618000168353,425.59772879997035,None,425.59772879997035,None,427.42777409998234,None,31,""[0.6071542000281624, 0.8747826000326313, 0.667181900003925, 0.8965279000112787, 0.8335629000212066, 1.104909299989231, 0.8959583999821916, 1.0837264999863692, 1.251645800017286, 1.0439069999847561, 1.3147458999883384, 0.7715239999815822, 0.8755936999805272, 0.9341479000286199, 0.7600970999919809, 0.6879288000054657, 0.8753570999833755, 0.8121922999853268, 1.4134045000537299, 0.748048200039193, 0.6254932000301778, 1.209428999980446, 0.9817933000158519, 1.0624916999950074, 0.7080941000021994, 0.920810799987521, 0.6255644999910146, 0.6258310000412166, 0.9791442999849096, 0.6448974999948405, 0.6879273999948055]"",""[0.6071605000179261, 0.874787800014019, 0.6671866000397131, 0.8965324999880977, 0.8335683000041172, 1.1049143999698572, 0.8959744999883696, 1.0837315000244416, 1.2516562000382692, 1.0439118000213057, 1.3147549999994226, 0.7715291000204161, 0.8755984999588691, 0.9341597000020556, 0.760103499982506, 0.6879335000412539, 0.8753628999693319, 0.8121975000249222, 1.4134092000313103, 0.7480533000198193, 0.6255165000329725, 1.2094340999610722, 0.981798599998001, 1.0624967999756336, 0.7081000999896787, 0.9208251999807544, 0.6255690999678336, 0.6258364000241272, 0.979149500024505, 0.6449026999762282, 0.6879335999838077]"",,,S028,3B,2024_May_06_1652,experiment_SCZ_Long_corrected,2021.2.3,48.00452394948917,"
"0.4106072998673534,1.0,Task,eh_227p.wav,eh_227tw_1.wav,None,145.0,Die Kinder liefen durch den Hof zum,Spielplatz,8.0,2.0,21.0,0.095238095,13.0,0.619047619,2.33454911,Stimuli/eh_227p.wav,Stimuli/eh_227tw_1.wav,1.0,1.0,11.0,0,31,31,29,,,,,,,,,,,,,428.1342696999782,431.6980479999911,430.106692500005,430.5104430000065,430.5103306599543,None,431.46032929996727,431.67707189999055,431.67707189999055,None,0.009259253740310669,5.370024300005753,431.67707189999055,None,433.5309589999961,None,32,""[0.6482100999564864, 0.9396504000178538, 0.6036447999649681, 0.8125623000087216, 0.5835758000030182, 0.6669443999999203, 0.6249039000249468, 1.0212335999822244, 0.8967841000412591, 1.082949000003282, 0.771348400041461, 0.6457194000249729, 0.7918199999839999, 0.8131974000134505, 1.0419344999827445, 0.939691599982325, 0.5627619999577291, 0.979637400014326, 1.1875552000128664, 0.9581658000242896, 0.7717912999796681, 1.2912852999870665, 1.3974052999983542, 1.792101899976842, 0.9795490000396967, 0.8547026999876834, 0.7918110000318848, 2.2508287000237033, 0.7304697000072338, 0.7923215999617241, 1.063553799991496, 0.8155390999745578]"",""[0.6482188999652863, 0.9396555000566877, 0.6036496000015177, 0.812567199987825, 0.5835811999859288, 0.6669492000364698, 0.6249088000040501, 1.0212388999643736, 0.8967896000249311, 1.082954499986954, 0.7713534000213258, 0.6457244000048377, 0.791824700019788, 0.8132025999948382, 1.0419393999618478, 0.9396969000226818, 0.5627676000003703, 0.9796426999964751, 1.1875603999942541, 0.958170700003393, 0.7717961000162177, 1.291290500026662, 1.397410400037188, 1.792106899956707, 0.9795544000226073, 0.8547086999751627, 0.7918162000132725, 2.2508338000043295, 0.7304748999886215, 0.792326900002081, 1.063559099973645, 0.8155443000141531]"",434.3436597000109,None,434.3436597000109,None,-0.043518517,-0.31666666,1,0,0,text_8,0.013073260022792965,None,435.4086462999694,437.61432509997394,C:\Users\Franziska\Desktop\S1_language prediction\data/S028_experiment_SCZ_Long_corrected_2024_May_06_1652_mic_2_recorded\recording_mic_2_trials_31.wav,0.01546696003060788,2.218615759979002,437.59364639996784,None,0.028703689575195312,3.1576247000484727,437.7052813000046,None,437.7052813000046,None,440.88479779998306,None,32,""[0.6071542000281624, 0.8747826000326313, 0.667181900003925, 0.8965279000112787, 0.8335629000212066, 1.104909299989231, 0.8959583999821916, 1.0837264999863692, 1.251645800017286, 1.0439069999847561, 1.3147458999883384, 0.7715239999815822, 0.8755936999805272, 0.9341479000286199, 0.7600970999919809, 0.6879288000054657, 0.8753570999833755, 0.8121922999853268, 1.4134045000537299, 0.748048200039193, 0.6254932000301778, 1.209428999980446, 0.9817933000158519, 1.0624916999950074, 0.7080941000021994, 0.920810799987521, 0.6255644999910146, 0.6258310000412166, 0.9791442999849096, 0.6448974999948405, 0.6879273999948055, 0.8545404000324197]"",""[0.6071605000179261, 0.874787800014019, 0.6671866000397131, 0.8965324999880977, 0.8335683000041172, 1.1049143999698572, 0.8959744999883696, 1.0837315000244416, 1.2516562000382692, 1.0439118000213057, 1.3147549999994226, 0.7715291000204161, 0.8755984999588691, 0.9341597000020556, 0.760103499982506, 0.6879335000412539, 0.8753628999693319, 0.8121975000249222, 1.4134092000313103, 0.7480533000198193, 0.6255165000329725, 1.2094340999610722, 0.981798599998001, 1.0624967999756336, 0.7081000999896787, 0.9208251999807544, 0.6255690999678336, 0.6258364000241272, 0.979149500024505, 0.6449026999762282, 0.6879335999838077, 0.8545453000115231]"",,,S028,3B,2024_May_06_1652,experiment_SCZ_Long_corrected,2021.2.3,48.00452394948917,"
"0.5097737820627684,1.0,Task,el_122p.wav,el_122tw_1.wav,None,24.0,Aus Angst vor den Gräten esse ich keinen,Fisch,9.0,44.0,44.0,1.0,1.0,0.022727273,0.0,Stimuli/el_122p.wav,Stimuli/el_122tw_1.wav,3.0,1.0,31.0,0,32,32,45,,,,,,,,,,,,,441.76535090000834,445.8420320999576,444.48314689996187,444.8841399999801,444.88406365996923,None,445.61059319996275,445.8214396999683,445.8214396999683,None,0.027777791023254395,6.134874599985778,445.8214396999683,None,447.92562049999833,None,33,""[0.6482100999564864, 0.9396504000178538, 0.6036447999649681, 0.8125623000087216, 0.5835758000030182, 0.6669443999999203, 0.6249039000249468, 1.0212335999822244, 0.8967841000412591, 1.082949000003282, 0.771348400041461, 0.6457194000249729, 0.7918199999839999, 0.8131974000134505, 1.0419344999827445, 0.939691599982325, 0.5627619999577291, 0.979637400014326, 1.1875552000128664, 0.9581658000242896, 0.7717912999796681, 1.2912852999870665, 1.3974052999983542, 1.792101899976842, 0.9795490000396967, 0.8547026999876834, 0.7918110000318848, 2.2508287000237033, 0.7304697000072338, 0.7923215999617241, 1.063553799991496, 0.8155390999745578, 0.8151251000235789]"",""[0.6482188999652863, 0.9396555000566877, 0.6036496000015177, 0.812567199987825, 0.5835811999859288, 0.6669492000364698, 0.6249088000040501, 1.0212388999643736, 0.8967896000249311, 1.082954499986954, 0.7713534000213258, 0.6457244000048377, 0.791824700019788, 0.8132025999948382, 1.0419393999618478, 0.9396969000226818, 0.5627676000003703, 0.9796426999964751, 1.1875603999942541, 0.958170700003393, 0.7717961000162177, 1.291290500026662, 1.397410400037188, 1.792106899956707, 0.9795544000226073, 0.8547086999751627, 0.7918162000132725, 2.2508338000043295, 0.7304748999886215, 0.792326900002081, 1.063559099973645, 0.8155443000141531, 0.8151303000049666]"",448.73834579996765,None,448.73834579996765,None,-0.030555556,-0.30462962,1,0,0,text_8,0.012738260091282427,None,449.4062144999625,451.61278719996335,C:\Users\Franziska\Desktop\S1_language prediction\data/S028_experiment_SCZ_Long_corrected_2024_May_06_1652_mic_2_recorded\recording_mic_2_trials_32.wav,0.01593635999597609,2.219459560001269,451.5920993000036,None,0.041666656732559204,1.1100359999691136,451.7107309999992,None,451.7107309999992,None,452.8417766999919,None,33,""[0.6071542000281624, 0.8747826000326313, 0.667181900003925, 0.8965279000112787, 0.8335629000212066, 1.104909299989231, 0.8959583999821916, 1.0837264999863692, 1.251645800017286, 1.0439069999847561, 1.3147458999883384, 0.7715239999815822, 0.8755936999805272, 0.9341479000286199, 0.7600970999919809, 0.6879288000054657, 0.8753570999833755, 0.8121922999853268, 1.4134045000537299, 0.748048200039193, 0.6254932000301778, 1.209428999980446, 0.9817933000158519, 1.0624916999950074, 0.7080941000021994, 0.920810799987521, 0.6255644999910146, 0.6258310000412166, 0.9791442999849096, 0.6448974999948405, 0.6879273999948055, 0.8545404000324197, 0.8753577999887057]"",""[0.6071605000179261, 0.874787800014019, 0.6671866000397131, 0.8965324999880977, 0.8335683000041172, 1.1049143999698572, 0.8959744999883696, 1.0837315000244416, 1.2516562000382692, 1.0439118000213057, 1.3147549999994226, 0.7715291000204161, 0.8755984999588691, 0.9341597000020556, 0.760103499982506, 0.6879335000412539, 0.8753628999693319, 0.8121975000249222, 1.4134092000313103, 0.7480533000198193, 0.6255165000329725, 1.2094340999610722, 0.981798599998001, 1.0624967999756336, 0.7081000999896787, 0.9208251999807544, 0.6255690999678336, 0.6258364000241272, 0.979149500024505, 0.6449026999762282, 0.6879335999838077, 0.8545453000115231, 0.8753927999641746]"",,,S028,3B,2024_May_06_1652,experiment_SCZ_Long_corrected,2021.2.3,48.00452394948917,"
"0.523775410400911,1.0,Task,em_284p.wav,em_284tw_1.wav,None,98.0,Die T-Shirts bemalten sie mit,Farbe,6.0,10.0,21.0,0.476190476,9.0,0.428571429,1.725094716,Stimuli/em_284p.wav,Stimuli/em_284tw_1.wav,2.0,1.0,21.0,0,33,33,48,,,,,,,,,,,,,453.74077289999695,456.88262039999245,455.5367546000052,455.9452989999554,455.94545966000294,None,456.65136670001084,456.8618734999909,456.8618734999909,None,0.0555555522441864,5.198801499966066,456.8618734999909,None,458.9659684000071,None,34,""[0.6482100999564864, 0.9396504000178538, 0.6036447999649681, 0.8125623000087216, 0.5835758000030182, 0.6669443999999203, 0.6249039000249468, 1.0212335999822244, 0.8967841000412591, 1.082949000003282, 0.771348400041461, 0.6457194000249729, 0.7918199999839999, 0.8131974000134505, 1.0419344999827445, 0.939691599982325, 0.5627619999577291, 0.979637400014326, 1.1875552000128664, 0.9581658000242896, 0.7717912999796681, 1.2912852999870665, 1.3974052999983542, 1.792101899976842, 0.9795490000396967, 0.8547026999876834, 0.7918110000318848, 2.2508287000237033, 0.7304697000072338, 0.7923215999617241, 1.063553799991496, 0.8155390999745578, 0.8151251000235789, 0.9373285000328906]"",""[0.6482188999652863, 0.9396555000566877, 0.6036496000015177, 0.812567199987825, 0.5835811999859288, 0.6669492000364698, 0.6249088000040501, 1.0212388999643736, 0.8967896000249311, 1.082954499986954, 0.7713534000213258, 0.6457244000048377, 0.791824700019788, 0.8132025999948382, 1.0419393999618478, 0.9396969000226818, 0.5627676000003703, 0.9796426999964751, 1.1875603999942541, 0.958170700003393, 0.7717961000162177, 1.291290500026662, 1.397410400037188, 1.792106899956707, 0.9795544000226073, 0.8547086999751627, 0.7918162000132725, 2.2508338000043295, 0.7304748999886215, 0.792326900002081, 1.063559099973645, 0.8155443000141531, 0.8151303000049666, 0.9373341000173241]"",459.9035472999676,None,459.9035472999676,None,0.062962964,-0.3074074,1,0,0,text_8,0.015522859990596771,None,460.52808459999505,462.73629380000057,C:\Users\Franziska\Desktop\S1_language prediction\data/S028_experiment_SCZ_Long_corrected_2024_May_06_1652_mic_2_recorded\recording_mic_2_trials_33.wav,0.017129959946032614,2.2222319599823095,462.6951528000063,None,0.05185183882713318,2.4233120000571944,462.81125379999867,None,462.81125379999867,None,465.2565547999693,None,34,""[0.6071542000281624, 0.8747826000326313, 0.667181900003925, 0.8965279000112787, 0.8335629000212066, 1.104909299989231, 0.8959583999821916, 1.0837264999863692, 1.251645800017286, 1.0439069999847561, 1.3147458999883384, 0.7715239999815822, 0.8755936999805272, 0.9341479000286199, 0.7600970999919809, 0.6879288000054657, 0.8753570999833755, 0.8121922999853268, 1.4134045000537299, 0.748048200039193, 0.6254932000301778, 1.209428999980446, 0.9817933000158519, 1.0624916999950074, 0.7080941000021994, 0.920810799987521, 0.6255644999910146, 0.6258310000412166, 0.9791442999849096, 0.6448974999948405, 0.6879273999948055, 0.8545404000324197, 0.8753577999887057, 0.9375709000159986]"",""[0.6071605000179261, 0.874787800014019, 0.6671866000397131, 0.8965324999880977, 0.8335683000041172, 1.1049143999698572, 0.8959744999883696, 1.0837315000244416, 1.2516562000382692, 1.0439118000213057, 1.3147549999994226, 0.7715291000204161, 0.8755984999588691, 0.9341597000020556, 0.760103499982506, 0.6879335000412539, 0.8753628999693319, 0.8121975000249222, 1.4134092000313103, 0.7480533000198193, 0.6255165000329725, 1.2094340999610722, 0.981798599998001, 1.0624967999756336, 0.7081000999896787, 0.9208251999807544, 0.6255690999678336, 0.6258364000241272, 0.979149500024505, 0.6449026999762282, 0.6879335999838077, 0.8545453000115231, 0.8753927999641746, 0.9375759999966249]"",,,S028,3B,2024_May_06_1652,experiment_SCZ_Long_corrected,2021.2.3,48.00452394948917,"
"0.346217653490289,1.0,Task,el_mm_145p.wav,el_mm_145tw_1.wav,None,184.0,Beim Abschließen ihres Autos fiel ihr der Schlüssel auf den,Koffer,11.0,0.0,44.0,0.0,7.0,0.159090909,0.642637951,Stimuli/el_mm_145p.wav,Stimuli/el_mm_145tw_1.wav,4.0,1.0,41.0,0,34,34,17,,,,,,,,,,,,,466.2196081999573,470.7144924000022,469.499285399972,469.90164679999,469.9019158599898,None,470.4877785999561,470.6934966999688,470.6934966999688,None,0.06481480598449707,6.760933100013062,470.6934966999688,None,473.0075635999674,None,35,""[0.6482100999564864, 0.9396504000178538, 0.6036447999649681, 0.8125623000087216, 0.5835758000030182, 0.6669443999999203, 0.6249039000249468, 1.0212335999822244, 0.8967841000412591, 1.082949000003282, 0.771348400041461, 0.6457194000249729, 0.7918199999839999, 0.8131974000134505, 1.0419344999827445, 0.939691599982325, 0.5627619999577291, 0.979637400014326, 1.1875552000128664, 0.9581658000242896, 0.7717912999796681, 1.2912852999870665, 1.3974052999983542, 1.792101899976842, 0.9795490000396967, 0.8547026999876834, 0.7918110000318848, 2.2508287000237033, 0.7304697000072338, 0.7923215999617241, 1.063553799991496, 0.8155390999745578, 0.8151251000235789, 0.9373285000328906, 0.7280023999628611]"",""[0.6482188999652863, 0.9396555000566877, 0.6036496000015177, 0.812567199987825, 0.5835811999859288, 0.6669492000364698, 0.6249088000040501, 1.0212388999643736, 0.8967896000249311, 1.082954499986954, 0.7713534000213258, 0.6457244000048377, 0.791824700019788, 0.8132025999948382, 1.0419393999618478, 0.9396969000226818, 0.5627676000003703, 0.9796426999964751, 1.1875603999942541, 0.958170700003393, 0.7717961000162177, 1.291290500026662, 1.397410400037188, 1.792106899956707, 0.9795544000226073, 0.8547086999751627, 0.7918162000132725, 2.2508338000043295, 0.7304748999886215, 0.792326900002081, 1.063559099973645, 0.8155443000141531, 0.8151303000049666, 0.9373341000173241, 0.7280076000024565]"",473.7354804999777,None,473.7354804999777,None,0.0074074073,-0.30277777,1,0,0,text_8,0.015374760085251182,None,474.86484100000234,477.0681096999906,C:\Users\Franziska\Desktop\S1_language prediction\data/S028_experiment_SCZ_Long_corrected_2024_May_06_1652_mic_2_recorded\recording_mic_2_trials_34.wav,0.015238959982525557,2.218440559983719,477.04772629996296,None,0.012962967157363892,1.4221162000321783,477.1679850000073,None,477.1679850000073,None,478.60923509998247,None,35,""[0.6071542000281624, 0.8747826000326313, 0.667181900003925, 0.8965279000112787, 0.8335629000212066, 1.104909299989231, 0.8959583999821916, 1.0837264999863692, 1.251645800017286, 1.0439069999847561, 1.3147458999883384, 0.7715239999815822, 0.8755936999805272, 0.9341479000286199, 0.7600970999919809, 0.6879288000054657, 0.8753570999833755, 0.8121922999853268, 1.4134045000537299, 0.748048200039193, 0.6254932000301778, 1.209428999980446, 0.9817933000158519, 1.0624916999950074, 0.7080941000021994, 0.920810799987521, 0.6255644999910146, 0.6258310000412166, 0.9791442999849096, 0.6448974999948405, 0.6879273999948055, 0.8545404000324197, 0.8753577999887057, 0.9375709000159986, 0.9163929999922402]"",""[0.6071605000179261, 0.874787800014019, 0.6671866000397131, 0.8965324999880977, 0.8335683000041172, 1.1049143999698572, 0.8959744999883696, 1.0837315000244416, 1.2516562000382692, 1.0439118000213057, 1.3147549999994226, 0.7715291000204161, 0.8755984999588691, 0.9341597000020556, 0.760103499982506, 0.6879335000412539, 0.8753628999693319, 0.8121975000249222, 1.4134092000313103, 0.7480533000198193, 0.6255165000329725, 1.2094340999610722, 0.981798599998001, 1.0624967999756336, 0.7081000999896787, 0.9208251999807544, 0.6255690999678336, 0.6258364000241272, 0.979149500024505, 0.6449026999762282, 0.6879335999838077, 0.8545453000115231, 0.8753927999641746, 0.9375759999966249, 0.9163980999728665]"",,,S028,3B,2024_May_06_1652,experiment_SCZ_Long_corrected,2021.2.3,48.00452394948917,"
"0.3935653764543178,1.0,Task,em_173p.wav,em_173tw_3.wav,None,113.0,Nach 10 Jahren kündigte Heinz seine Mitgliedschaft im,Verein,9.0,23.0,44.0,0.522727273,10.0,0.227272727,1.515454427,Stimuli/em_173p.wav,Stimuli/em_173tw_3.wav,2.0,3.0,23.0,0,35,35,24,,,,,,,,,,,,,479.5522192000062,484.19185419997666,482.8277138999547,483.23384729999816,483.23355495997237,None,483.9512747999979,484.17096029996173,484.17096029996173,None,0.03796297311782837,6.738927699974738,484.17096029996173,None,486.3170722000068,None,36,""[0.6482100999564864, 0.9396504000178538, 0.6036447999649681, 0.8125623000087216, 0.5835758000030182, 0.6669443999999203, 0.6249039000249468, 1.0212335999822244, 0.8967841000412591, 1.082949000003282, 0.771348400041461, 0.6457194000249729, 0.7918199999839999, 0.8131974000134505, 1.0419344999827445, 0.939691599982325, 0.5627619999577291, 0.979637400014326, 1.1875552000128664, 0.9581658000242896, 0.7717912999796681, 1.2912852999870665, 1.3974052999983542, 1.792101899976842, 0.9795490000396967, 0.8547026999876834, 0.7918110000318848, 2.2508287000237033, 0.7304697000072338, 0.7923215999617241, 1.063553799991496, 0.8155390999745578, 0.8151251000235789, 0.9373285000328906, 0.7280023999628611, 0.6665336000151001]"",""[0.6482188999652863, 0.9396555000566877, 0.6036496000015177, 0.812567199987825, 0.5835811999859288, 0.6669492000364698, 0.6249088000040501, 1.0212388999643736, 0.8967896000249311, 1.082954499986954, 0.7713534000213258, 0.6457244000048377, 0.791824700019788, 0.8132025999948382, 1.0419393999618478, 0.9396969000226818, 0.5627676000003703, 0.9796426999964751, 1.1875603999942541, 0.958170700003393, 0.7717961000162177, 1.291290500026662, 1.397410400037188, 1.792106899956707, 0.9795544000226073, 0.8547086999751627, 0.7918162000132725, 2.2508338000043295, 0.7304748999886215, 0.792326900002081, 1.063559099973645, 0.8155443000141531, 0.8151303000049666, 0.9373341000173241, 0.7280076000024565, 0.6665399000048637]"",486.9835297999671,None,486.9835297999671,None,0.02962963,-0.3175926,1,0,0,text_8,0.014934359991457313,None,487.4648419999867,489.6706139000016,C:\Users\Franziska\Desktop\S1_language prediction\data/S028_experiment_SCZ_Long_corrected_2024_May_06_1652_mic_2_recorded\recording_mic_2_trials_35.wav,0.01520906004589051,2.2177883600234054,489.6498730999883,None,0.041666656732559204,3.1370349999633618,489.76108399999794,None,489.76108399999794,None,492.9202176000108,None,36,""[0.6071542000281624, 0.8747826000326313, 0.667181900003925, 0.8965279000112787, 0.8335629000212066, 1.104909299989231, 0.8959583999821916, 1.0837264999863692, 1.251645800017286, 1.0439069999847561, 1.3147458999883384, 0.7715239999815822, 0.8755936999805272, 0.9341479000286199, 0.7600970999919809, 0.6879288000054657, 0.8753570999833755, 0.8121922999853268, 1.4134045000537299, 0.748048200039193, 0.6254932000301778, 1.209428999980446, 0.9817933000158519, 1.0624916999950074, 0.7080941000021994, 0.920810799987521, 0.6255644999910146, 0.6258310000412166, 0.9791442999849096, 0.6448974999948405, 0.6879273999948055, 0.8545404000324197, 0.8753577999887057, 0.9375709000159986, 0.9163929999922402, 1.042314800026361]"",""[0.6071605000179261, 0.874787800014019, 0.6671866000397131, 0.8965324999880977, 0.8335683000041172, 1.1049143999698572, 0.8959744999883696, 1.0837315000244416, 1.2516562000382692, 1.0439118000213057, 1.3147549999994226, 0.7715291000204161, 0.8755984999588691, 0.9341597000020556, 0.760103499982506, 0.6879335000412539, 0.8753628999693319, 0.8121975000249222, 1.4134092000313103, 0.7480533000198193, 0.6255165000329725, 1.2094340999610722, 0.981798599998001, 1.0624967999756336, 0.7081000999896787, 0.9208251999807544, 0.6255690999678336, 0.6258364000241272, 0.979149500024505, 0.6449026999762282, 0.6879335999838077, 0.8545453000115231, 0.8753927999641746, 0.9375759999966249, 0.9163980999728665, 1.0423205000115559]"",,,S028,3B,2024_May_06_1652,experiment_SCZ_Long_corrected,2021.2.3,48.00452394948917,"
"0.3285062128998161,1.0,Task,el_mm_025p.wav,el_mm_025tw_6.wav,None,167.0,Ihre neuen Schuhe hatten die falsche,Rechnung,7.0,0.0,47.0,0.0,4.0,0.085106383,0.6535626,Stimuli/el_mm_025p.wav,Stimuli/el_mm_025tw_6.wav,4.0,6.0,46.0,0,36,36,11,,,,,,,,,,,,,493.9864724999643,497.58639169996604,496.23564520000946,496.6485398999648,496.64867905996505,None,497.3480796999647,497.56563659996027,497.56563659996027,None,0.43703703582286835,6.137885699979961,497.56563659996027,None,500.1483632999589,None,37,""[0.6482100999564864, 0.9396504000178538, 0.6036447999649681, 0.8125623000087216, 0.5835758000030182, 0.6669443999999203, 0.6249039000249468, 1.0212335999822244, 0.8967841000412591, 1.082949000003282, 0.771348400041461, 0.6457194000249729, 0.7918199999839999, 0.8131974000134505, 1.0419344999827445, 0.939691599982325, 0.5627619999577291, 0.979637400014326, 1.1875552000128664, 0.9581658000242896, 0.7717912999796681, 1.2912852999870665, 1.3974052999983542, 1.792101899976842, 0.9795490000396967, 0.8547026999876834, 0.7918110000318848, 2.2508287000237033, 0.7304697000072338, 0.7923215999617241, 1.063553799991496, 0.8155390999745578, 0.8151251000235789, 0.9373285000328906, 0.7280023999628611, 0.6665336000151001, 0.9377514999941923]"",""[0.6482188999652863, 0.9396555000566877, 0.6036496000015177, 0.812567199987825, 0.5835811999859288, 0.6669492000364698, 0.6249088000040501, 1.0212388999643736, 0.8967896000249311, 1.082954499986954, 0.7713534000213258, 0.6457244000048377, 0.791824700019788, 0.8132025999948382, 1.0419393999618478, 0.9396969000226818, 0.5627676000003703, 0.9796426999964751, 1.1875603999942541, 0.958170700003393, 0.7717961000162177, 1.291290500026662, 1.397410400037188, 1.792106899956707, 0.9795544000226073, 0.8547086999751627, 0.7918162000132725, 2.2508338000043295, 0.7304748999886215, 0.792326900002081, 1.063559099973645, 0.8155443000141531, 0.8151303000049666, 0.9373341000173241, 0.7280076000024565, 0.6665399000048637, 0.9377568999771029]"",501.0861508999951,None,501.0861508999951,None,-0.037962962,-0.3175926,1,0,0,text_8,0.015366860083304346,None,502.23752669995883,504.4394650000031,C:\Users\Franziska\Desktop\S1_language prediction\data/S028_experiment_SCZ_Long_corrected_2024_May_06_1652_mic_2_recorded\recording_mic_2_trials_36.wav,0.015348960063420236,2.218221360060852,504.41912019997835,None,0.2074074149131775,1.278547600028105,504.53588649997255,None,504.53588649997255,None,505.8360544999596,None,37,""[0.6071542000281624, 0.8747826000326313, 0.667181900003925, 0.8965279000112787, 0.8335629000212066, 1.104909299989231, 0.8959583999821916, 1.0837264999863692, 1.251645800017286, 1.0439069999847561, 1.3147458999883384, 0.7715239999815822, 0.8755936999805272, 0.9341479000286199, 0.7600970999919809, 0.6879288000054657, 0.8753570999833755, 0.8121922999853268, 1.4134045000537299, 0.748048200039193, 0.6254932000301778, 1.209428999980446, 0.9817933000158519, 1.0624916999950074, 0.7080941000021994, 0.920810799987521, 0.6255644999910146, 0.6258310000412166, 0.9791442999849096, 0.6448974999948405, 0.6879273999948055, 0.8545404000324197, 0.8753577999887057, 0.9375709000159986, 0.9163929999922402, 1.042314800026361, 0.9586514999973588]"",""[0.6071605000179261, 0.874787800014019, 0.6671866000397131, 0.8965324999880977, 0.8335683000041172, 1.1049143999698572, 0.8959744999883696, 1.0837315000244416, 1.2516562000382692, 1.0439118000213057, 1.3147549999994226, 0.7715291000204161, 0.8755984999588691, 0.9341597000020556, 0.760103499982506, 0.6879335000412539, 0.8753628999693319, 0.8121975000249222, 1.4134092000313103, 0.7480533000198193, 0.6255165000329725, 1.2094340999610722, 0.981798599998001, 1.0624967999756336, 0.7081000999896787, 0.9208251999807544, 0.6255690999678336, 0.6258364000241272, 0.979149500024505, 0.6449026999762282, 0.6879335999838077, 0.8545453000115231, 0.8753927999641746, 0.9375759999966249, 0.9163980999728665, 1.0423205000115559, 0.9586566999787465]"",,,S028,3B,2024_May_06_1652,experiment_SCZ_Long_corrected,2021.2.3,48.00452394948917,"
